timestamp,roll_deg,pitch_deg,yaw_deg,x,y,z,vx,vy,vz,pbar_x,pbar_y,bgyr_x,bgyr_y,bgyr_z,bacc_x,bacc_y,bacc_z,bmag_x,bmag_y,bmag_z,P_dtheta_x,P_dtheta_y,P_dtheta_z,P_dpos_x,P_dpos_y,P_dpos_z,P_dvel_x,P_dvel_y,P_dvel_z,P_dpbar_x,P_dpbar_y,P_dbgyr_x,P_dbgyr_y,P_dbgyr_z,P_dbacc_x,P_dbacc_y,P_dbacc_z,P_dbmag_x,P_dbmag_y,P_dbmag_z
1768299697.787668,0.002131,-0.694160,-1.469340,1000.000000,1000.000000,1000.000000,0.000004,0.000018,0.000087,0.000000,0.000000,0.000000,0.000265,-0.000000,0.000095,0.000270,0.001498,0.000000,0.000000,0.000000,0.000292,0.000293,0.002498,9.000006,9.000006,9.000006,0.250001,0.250001,0.250001,1.000000,1.000000,0.000018,0.000018,0.000018,0.002477,0.002477,0.002304,1.000000,1.000000,1.000000
1768299697.790438,0.002163,-0.718061,-1.505256,1000.000000,1000.000000,1000.000001,0.000002,0.000022,0.000118,0.000000,0.000000,0.000000,0.000420,0.000000,0.000058,0.000321,0.002031,0.000000,0.000000,0.000000,0.000167,0.000168,0.002498,9.000025,9.000025,9.000025,0.250003,0.250003,0.250002,1.000000,1.000000,0.000015,0.000015,0.000015,0.002476,0.002476,0.002136,1.000000,1.000000,1.000000
1768299697.795344,0.001467,-0.726700,-1.464164,1000.000000,1000.000001,1000.000001,0.000001,0.000017,0.000187,0.000000,0.000000,-0.000000,0.000694,0.000000,0.000057,0.000216,0.003202,0.000000,0.000000,0.000000,0.000122,0.000123,0.002498,9.000056,9.000056,9.000056,0.250004,0.250004,0.250003,1.000000,1.000000,0.000012,0.000012,0.000012,0.002475,0.002475,0.001991,1.000000,1.000000,1.000000
1768299697.802866,0.000228,-0.758664,-1.401555,1000.000001,1000.000002,1000.000002,-0.000003,0.000011,0.000249,0.000000,0.000000,0.000146,0.000887,0.000000,0.000014,0.000078,0.004255,0.000000,0.000000,0.000000,0.000099,0.000100,0.002498,9.000100,9.000100,9.000100,0.250006,0.250006,0.250004,1.000000,1.000000,0.000010,0.000010,0.000010,0.002475,0.002475,0.001865,1.000000,1.000000,1.000000
1768299697.805331,179.999735,-179.221680,178.625390,1000.000001,1000.000003,1000.000004,-0.000005,0.000008,0.000302,0.000000,0.000000,0.000127,0.000902,0.000000,-0.000009,0.000008,0.005168,0.000000,0.000000,0.000000,0.000084,0.000085,0.002498,9.000156,9.000156,9.000156,0.250007,0.250007,0.250005,1.000000,1.000000,0.000009,0.000009,0.000009,0.002475,0.002474,0.001753,1.000000,1.000000,1.000000
1768299697.812624,179.999815,-179.217668,178.625236,1000.000002,1000.000003,1000.000005,-0.000005,0.000008,0.000316,0.000000,0.000000,0.000112,0.000800,0.000000,-0.000013,0.000002,0.005406,0.000000,0.000000,0.000000,0.000075,0.000076,0.002498,9.000225,9.000225,9.000225,0.250009,0.250009,0.250006,1.000000,1.000000,0.000008,0.000008,0.000008,0.002475,0.002474,0.001654,1.000000,1.000000,1.000000
1768299697.817895,179.998915,-179.222622,178.648819,1000.000001,1000.000005,1000.000006,-0.000005,0.000005,0.000362,0.000000,0.000000,0.000100,0.000718,0.000000,0.000007,-0.000058,0.006185,0.000000,0.000000,0.000000,0.000068,0.000069,0.002498,9.000306,9.000306,9.000306,0.250010,0.250010,0.250007,1.000000,1.000000,0.000007,0.000007,0.000007,0.002475,0.002474,0.001566,1.000000,1.000000,1.000000
1768299697.820363,179.998019,-179.226354,178.673581,1000.000001,1000.000007,1000.000008,-0.000004,0.000002,0.000403,0.000000,0.000000,0.000089,0.000651,0.000000,0.000024,-0.000118,0.006897,0.000000,0.000000,0.000000,0.000063,0.000064,0.002498,9.000400,9.000400,9.000400,0.250012,0.250012,0.250008,1.000000,1.000000,0.000006,0.000006,0.000006,0.002475,0.002474,0.001487,1.000000,1.000000,1.000000
1768299697.828012,179.998341,-179.222648,178.667756,1000.000001,1000.000007,1000.000009,-0.000005,0.000003,0.000466,0.000000,0.000000,-0.000003,0.000426,0.000000,0.000032,-0.000132,0.007962,0.000000,0.000000,0.000000,0.000059,0.000060,0.002498,9.000506,9.000506,9.000506,0.250013,0.250013,0.250009,1.000000,1.000000,0.000006,0.000006,0.000006,0.002475,0.002474,0.001415,1.000000,1.000000,1.000000
1768299697.830361,179.998706,-179.225356,178.652001,1000.000001,1000.000004,1000.000011,-0.000004,0.000005,0.000495,0.000000,0.000000,-0.000080,0.000235,0.000000,0.000044,-0.000115,0.008463,0.000000,0.000000,0.000000,0.000056,0.000057,0.002498,9.000625,9.000625,9.000625,0.250015,0.250015,0.250011,1.000000,1.000000,0.000005,0.000005,0.000005,0.002475,0.002474,0.001350,1.000000,1.000000,1.000000
1768299697.837719,179.998551,-179.232671,178.649432,999.999999,1000.000003,1000.000013,-0.000003,0.000005,0.000523,0.000000,0.000000,-0.000074,0.000072,0.000000,0.000064,-0.000122,0.008945,0.000000,0.000000,0.000000,0.000053,0.000054,0.002498,9.000756,9.000756,9.000756,0.250016,0.250016,0.250012,1.000000,1.000000,0.000005,0.000005,0.000005,0.002474,0.002474,0.001291,1.000000,1.000000,1.000000
1768299697.840424,179.998214,-179.238776,178.656642,999.999997,1000.000005,1000.000015,-0.000003,0.000004,0.000550,0.000000,0.000000,-0.000070,-0.000068,0.000000,0.000082,-0.000145,0.009406,0.000000,0.000000,0.000000,0.000051,0.000052,0.002498,9.000900,9.000900,9.000900,0.250017,0.250017,0.250013,1.000000,1.000000,0.000005,0.000005,0.000005,0.002474,0.002474,0.001237,1.000000,1.000000,1.000000
1768299697.845323,179.997777,-179.248431,178.662755,999.999994,1000.000007,1000.000017,-0.000001,0.000003,0.000576,0.000000,0.000000,-0.000066,-0.000129,-0.000000,0.000105,-0.000166,0.009836,0.000000,0.000000,0.000000,0.000049,0.000050,0.002498,9.001056,9.001056,9.001056,0.250019,0.250019,0.250015,1.000000,1.000000,0.000004,0.000004,0.000004,0.002474,0.002474,0.001187,1.000000,1.000000,1.000000
1768299697.852877,179.997451,-179.256931,178.660061,999.999991,1000.000006,1000.000020,-0.000000,0.000004,0.000575,0.000000,0.000000,-0.000062,-0.000122,-0.000000,0.000120,-0.000161,0.009832,0.000000,0.000000,0.000000,0.000047,0.000048,0.002498,9.001225,9.001225,9.001225,0.250020,0.250020,0.250016,1.000000,1.000000,0.000004,0.000004,0.000004,0.002474,0.002474,0.001141,1.000000,1.000000,1.000000
1768299697.855417,179.997035,-179.268057,178.661475,999.999987,1000.000007,1000.000023,0.000001,0.000004,0.000576,0.000000,0.000000,-0.000058,-0.000116,-0.000000,0.000140,-0.000163,0.009843,0.000000,0.000000,0.000000,0.000046,0.000047,0.002498,9.001406,9.001406,9.001406,0.250022,0.250022,0.250017,1.000000,1.000000,0.000004,0.000004,0.000004,0.002474,0.002474,0.001098,1.000000,1.000000,1.000000
1768299697.862607,179.996917,-179.277910,178.680226,999.999982,1000.000016,1000.000025,0.000002,0.000001,0.000599,0.000000,0.000000,-0.000058,-0.000058,-0.000000,0.000162,-0.000206,0.010247,0.000000,0.000000,0.000000,0.000045,0.000046,0.002498,9.001600,9.001600,9.001600,0.250023,0.250023,0.250018,1.000000,1.000000,0.000004,0.000004,0.000004,0.002474,0.002474,0.001058,1.000000,1.000000,1.000000
1768299697.865663,179.996930,-179.283301,178.693478,999.999979,1000.000023,1000.000026,0.000003,-0.000000,0.000620,0.000000,0.000000,-0.000057,-0.000005,-0.000000,0.000176,-0.000238,0.010611,0.000000,0.000000,0.000000,0.000044,0.000044,0.002498,9.001806,9.001806,9.001806,0.250025,0.250025,0.250020,1.000000,1.000000,0.000003,0.000003,0.000004,0.002474,0.002474,0.001022,1.000000,1.000000,1.000000
1768299697.870471,179.996686,-179.284972,178.689615,999.999978,1000.000021,1000.000029,0.000003,0.000000,0.000638,0.000000,0.000000,-0.000053,0.000043,-0.000000,0.000183,-0.000237,0.010908,0.000000,0.000000,0.000000,0.000043,0.000044,0.002498,9.002025,9.002025,9.002025,0.250026,0.250026,0.250021,1.000000,1.000000,0.000003,0.000003,0.000003,0.002474,0.002474,0.000987,1.000000,1.000000,1.000000
1768299697.877927,179.996687,-179.283348,178.686155,999.999979,1000.000018,1000.000031,0.000003,0.000001,0.000654,0.000000,0.000000,-0.000050,0.000041,-0.000000,0.000183,-0.000237,0.011181,0.000000,0.000000,0.000000,0.000042,0.000043,0.002498,9.002256,9.002256,9.002256,0.250028,0.250028,0.250023,1.000000,1.000000,0.000003,0.000003,0.000003,0.002474,0.002474,0.000955,1.000000,1.000000,1.000000
1768299697.880464,179.996965,-179.279063,178.685859,999.999982,1000.000018,1000.000033,0.000002,0.000001,0.000669,0.000000,0.000000,-0.000048,0.000040,-0.000000,0.000178,-0.000242,0.011440,0.000000,0.000000,0.000000,0.000041,0.000042,0.002498,9.002500,9.002500,9.002500,0.250029,0.250029,0.250024,1.000000,1.000000,0.000003,0.000003,0.000003,0.002474,0.002474,0.000925,1.000000,1.000000,1.000000
1768299697.887685,179.997510,-179.269810,178.682903,999.999990,1000.000016,1000.000035,0.000001,0.000001,0.000683,0.000000,0.000000,-0.000045,0.000040,-0.000000,0.000164,-0.000241,0.011669,0.000000,0.000000,0.000000,0.000040,0.000041,0.002498,9.002756,9.002756,9.002756,0.250031,0.250031,0.250025,1.000000,1.000000,0.000003,0.000003,0.000003,0.002474,0.002474,0.000897,1.000000,1.000000,1.000000
1768299697.890854,179.997950,-179.261392,178.675082,999.999998,1000.000008,1000.000037,-0.000000,0.000002,0.000695,0.000000,0.000000,-0.000042,0.000040,0.000000,0.000152,-0.000232,0.011870,0.000000,0.000000,0.000000,0.000040,0.000041,0.002498,9.003025,9.003025,9.003025,0.250032,0.250032,0.250027,1.000000,1.000000,0.000003,0.000003,0.000003,0.002474,0.002474,0.000870,1.000000,1.000000,1.000000
1768299697.895794,179.998231,-179.256158,178.667936,1000.000004,1000.000001,1000.000040,-0.000001,0.000003,0.000706,0.000000,0.000000,-0.000039,0.000040,0.000000,0.000145,-0.000223,0.012064,0.000000,0.000000,0.000000,0.000039,0.000040,0.002498,9.003306,9.003306,9.003306,0.250034,0.250034,0.250028,1.000000,1.000000,0.000003,0.000003,0.000003,0.002474,0.002474,0.000845,1.000000,1.000000,1.000000
1768299697.902972,179.998217,-179.253524,178.677806,1000.000007,1000.000012,1000.000040,-0.000001,0.000002,0.000735,0.000000,0.000000,-0.000040,0.000001,0.000000,0.000147,-0.000252,0.012569,0.000000,0.000000,0.000000,0.000039,0.000039,0.002498,9.003600,9.003600,9.003600,0.250035,0.250035,0.250029,1.000000,1.000000,0.000003,0.000003,0.000003,0.002474,0.002474,0.000822,1.000000,1.000000,1.000000
1768299697.905355,179.998205,-179.251098,178.686894,1000.000010,1000.000023,1000.000040,-0.000001,0.000000,0.000763,0.000000,0.000000,-0.000040,-0.000034,0.000000,0.000149,-0.000279,0.013047,0.000000,0.000000,0.000000,0.000038,0.000039,0.002498,9.003906,9.003906,9.003906,0.250037,0.250037,0.250031,1.000000,1.000000,0.000002,0.000002,0.000002,0.002474,0.002474,0.000800,1.000000,1.000000,1.000000
1768299697.912598,179.998362,-179.248889,178.686637,1000.000012,1000.000023,1000.000043,-0.000002,0.000001,0.000773,0.000000,0.000000,-0.000039,-0.000067,0.000000,0.000147,-0.000282,0.013216,0.000000,0.000000,0.000000,0.000038,0.000038,0.002498,9.004225,9.004225,9.004225,0.250038,0.250038,0.250032,1.000000,1.000000,0.000002,0.000002,0.000002,0.002474,0.002474,0.000778,1.000000,1.000000,1.000000
1768299697.915366,179.998357,-179.248966,178.686444,1000.000012,1000.000023,1000.000047,-0.000002,0.000001,0.000768,0.000000,0.000000,-0.000037,-0.000099,0.000000,0.000146,-0.000280,0.013126,0.000000,0.000000,0.000000,0.000037,0.000038,0.002498,9.004556,9.004556,9.004556,0.250039,0.250039,0.250034,1.000000,1.000000,0.000002,0.000002,0.000002,0.002474,0.002474,0.000758,1.000000,1.000000,1.000000
1768299697.922779,179.998024,-179.251178,178.694304,1000.000009,1000.000035,1000.000050,-0.000001,-0.000000,0.000779,0.000000,0.000000,-0.000038,-0.000096,0.000000,0.000153,-0.000298,0.013313,0.000000,0.000000,0.000000,0.000037,0.000038,0.002498,9.004900,9.004900,9.004900,0.250041,0.250041,0.250035,1.000000,1.000000,0.000002,0.000002,0.000002,0.002474,0.002474,0.000739,1.000000,1.000000,1.000000
1768299697.927933,179.997785,-179.253239,178.697722,1000.000005,1000.000041,1000.000052,-0.000001,-0.000001,0.000788,0.000000,0.000000,-0.000038,-0.000094,0.000000,0.000158,-0.000308,0.013480,0.000000,0.000000,0.000000,0.000036,0.000037,0.002498,9.005256,9.005256,9.005256,0.250042,0.250042,0.250036,1.000000,1.000000,0.000002,0.000002,0.000002,0.002474,0.002474,0.000721,1.000000,1.000000,1.000000
1768299697.930379,179.997791,-179.253278,178.697140,1000.000005,1000.000040,1000.000054,-0.000001,-0.000001,0.000797,0.000000,0.000000,-0.000037,-0.000091,0.000000,0.000160,-0.000310,0.013625,0.000000,0.000000,0.000000,0.000036,0.000037,0.002498,9.005625,9.005625,9.005625,0.250044,0.250044,0.250038,1.000000,1.000000,0.000002,0.000002,0.000002,0.002474,0.002474,0.000704,1.000000,1.000000,1.000000
1768299697.937736,179.997650,-179.255166,178.694807,1000.000002,1000.000035,1000.000059,-0.000001,-0.000001,0.000791,0.000000,0.000000,-0.000035,-0.000089,0.000000,0.000163,-0.000304,0.013531,0.000000,0.000000,0.000000,0.000036,0.000037,0.002498,9.006007,9.006007,9.006007,0.250045,0.250045,0.250039,1.000000,1.000000,0.000002,0.000002,0.000002,0.002474,0.002474,0.000688,1.000000,1.000000,1.000000
1768299697.940447,179.997478,-179.257062,178.696271,999.999998,1000.000038,1000.000062,-0.000001,-0.000001,0.000800,0.000000,0.000000,-0.000005,-0.000058,0.000000,0.000168,-0.000309,0.013676,0.000000,0.000000,0.000000,0.000035,0.000036,0.002498,9.006400,9.006400,9.006400,0.250047,0.250047,0.250041,1.000000,1.000000,0.000002,0.000002,0.000002,0.002474,0.002474,0.000672,1.000000,1.000000,1.000000
1768299697.947704,179.997308,-179.258842,178.699364,999.999994,1000.000044,1000.000064,-0.000000,-0.000001,0.000808,0.000000,0.000000,0.000022,-0.000029,0.000000,0.000173,-0.000318,0.013820,0.000000,0.000000,0.000000,0.000035,0.000036,0.002498,9.006807,9.006807,9.006807,0.250048,0.250048,0.250042,1.000000,1.000000,0.000002,0.000002,0.000002,0.002474,0.002474,0.000657,1.000000,1.000000,1.000000
1768299697.952911,179.997319,-179.258853,178.697274,999.999994,1000.000039,1000.000066,-0.000000,-0.000001,0.000815,0.000000,0.000000,0.000049,-0.000001,0.000000,0.000174,-0.000316,0.013940,0.000000,0.000000,0.000000,0.000035,0.000036,0.002498,9.007225,9.007225,9.007225,0.250050,0.250050,0.250043,1.000000,1.000000,0.000002,0.000002,0.000002,0.002474,0.002474,0.000643,1.000000,1.000000,1.000000
1768299697.955348,179.997334,-179.258885,178.693569,999.999995,1000.000030,1000.000072,-0.000000,-0.000000,0.000810,0.000000,0.000000,0.000049,0.000026,0.000000,0.000173,-0.000308,0.013840,0.000000,0.000000,0.000000,0.000035,0.000036,0.002498,9.007657,9.007657,9.007657,0.250051,0.250051,0.250045,1.000000,1.000000,0.000002,0.000002,0.000002,0.002474,0.002474,0.000629,1.000000,1.000000,1.000000
1768299697.962689,179.997205,-179.260340,178.696371,999.999991,1000.000037,1000.000077,-0.000000,-0.000001,0.000805,0.000000,0.000000,0.000047,0.000025,0.000000,0.000175,-0.000311,0.013766,0.000000,0.000000,0.000000,0.000034,0.000035,0.002498,9.008100,9.008100,9.008100,0.250053,0.250053,0.250046,1.000000,1.000000,0.000002,0.000002,0.000002,0.002474,0.002474,0.000616,1.000000,1.000000,1.000000
1768299697.965683,179.997084,-179.261717,178.699022,999.999987,1000.000045,1000.000082,0.000000,-0.000001,0.000801,0.000000,0.000000,0.000045,0.000024,0.000000,0.000176,-0.000314,0.013695,0.000000,0.000000,0.000000,0.000034,0.000035,0.002498,9.008557,9.008557,9.008557,0.250054,0.250054,0.250048,1.000000,1.000000,0.000002,0.000002,0.000002,0.002474,0.002474,0.000603,1.000000,1.000000,1.000000
1768299697.970527,179.997094,-179.261530,178.697053,999.999987,1000.000039,1000.000087,0.000000,-0.000001,0.000796,0.000000,0.000000,0.000044,0.000023,0.000000,0.000175,-0.000309,0.013611,0.000000,0.000000,0.000000,0.000034,0.000035,0.002498,9.009026,9.009026,9.009026,0.250056,0.250056,0.250049,1.000000,1.000000,0.000002,0.000002,0.000002,0.002474,0.002474,0.000591,1.000000,1.000000,1.000000
1768299697.977964,179.997103,-179.261187,178.692243,999.999988,1000.000024,1000.000090,-0.000000,-0.000000,0.000802,0.000000,0.000000,0.000045,-0.000001,0.000000,0.000176,-0.000303,0.013714,0.000000,0.000000,0.000000,0.000034,0.000035,0.002498,9.009507,9.009507,9.009507,0.250057,0.250057,0.250051,1.000000,1.000000,0.000002,0.000002,0.000002,0.002474,0.002474,0.000579,1.000000,1.000000,1.000000
1768299697.982886,179.997019,-179.262279,178.693351,999.999984,1000.000028,1000.000091,0.000000,-0.000000,0.000809,0.000000,0.000000,0.000043,-0.000025,0.000000,0.000179,-0.000307,0.013833,0.000000,0.000000,0.000000,0.000034,0.000035,0.002498,9.010001,9.010001,9.010001,0.250058,0.250058,0.250052,1.000000,1.000000,0.000002,0.000002,0.000002,0.002474,0.002474,0.000568,1.000000,1.000000,1.000000
1768299697.987630,179.996961,-179.263300,178.697147,999.999980,1000.000041,1000.000089,0.000000,-0.000001,0.000827,0.000000,0.000000,0.000041,-0.000048,0.000000,0.000185,-0.000320,0.014142,0.000000,0.000000,0.000000,0.000033,0.000034,0.002498,9.010507,9.010507,9.010507,0.250060,0.250060,0.250053,1.000000,1.000000,0.000002,0.000002,0.000002,0.002474,0.002474,0.000558,1.000000,1.000000,1.000000
1768299697.990368,179.996893,-179.264274,178.699412,999.999977,1000.000049,1000.000087,0.000000,-0.000001,0.000844,0.000000,0.000000,0.000039,-0.000070,0.000000,0.000190,-0.000331,0.014436,0.000000,0.000000,0.000000,0.000033,0.000034,0.002498,9.011026,9.011026,9.011026,0.250061,0.250061,0.250055,1.000000,1.000000,0.000002,0.000002,0.000002,0.002474,0.002474,0.000547,1.000000,1.000000,1.000000
1768299697.997670,179.996658,-179.266542,178.698955,999.999968,1000.000047,1000.000089,0.000001,-0.000001,0.000850,0.000000,0.000000,0.000039,-0.000091,-0.000000,0.000196,-0.000332,0.014534,0.000000,0.000000,0.000000,0.000033,0.000034,0.002498,9.011557,9.011557,9.011557,0.250063,0.250063,0.250056,1.000000,1.000000,0.000002,0.000002,0.000002,0.002474,0.002474,0.000537,1.000000,1.000000,1.000000
1768299698.002875,179.996391,-179.270131,178.702370,999.999954,1000.000061,1000.000087,0.000001,-0.000002,0.000866,0.000000,0.000000,0.000036,-0.000090,-0.000000,0.000206,-0.000344,0.014818,0.000000,0.000000,0.000000,0.000033,0.000034,0.002498,9.012101,9.012101,9.012101,0.250064,0.250064,0.250058,1.000000,1.000000,0.000001,0.000001,0.000001,0.002474,0.002474,0.000528,1.000000,1.000000,1.000000
1768299698.005341,179.996179,-179.273562,178.706899,999.999939,1000.000080,1000.000085,0.000002,-0.000002,0.000883,0.000000,0.000000,0.000034,-0.000090,-0.000000,0.000215,-0.000358,0.015096,0.000000,0.000000,0.000000,0.000033,0.000034,0.002498,9.012657,9.012657,9.012657,0.250066,0.250066,0.250059,1.000000,1.000000,0.000001,0.000001,0.000001,0.002474,0.002474,0.000518,1.000000,1.000000,1.000000
1768299698.012605,179.995997,-179.274387,178.705071,999.999936,1000.000072,1000.000087,0.000002,-0.000002,0.000887,0.000000,0.000000,0.000034,-0.000088,-0.000000,0.000218,-0.000356,0.015171,0.000000,0.000000,0.000000,0.000033,0.000034,0.002498,9.013226,9.013226,9.013226,0.250067,0.250067,0.250061,1.000000,1.000000,0.000001,0.000001,0.000001,0.002474,0.002474,0.000509,1.000000,1.000000,1.000000
1768299698.015466,179.995848,-179.273966,178.700898,999.999938,1000.000053,1000.000090,0.000002,-0.000001,0.000891,0.000000,0.000000,0.000035,-0.000086,-0.000000,0.000218,-0.000350,0.015234,0.000000,0.000000,0.000000,0.000032,0.000033,0.002498,9.013807,9.013807,9.013807,0.250069,0.250069,0.250062,1.000000,1.000000,0.000001,0.000001,0.000001,0.002474,0.002474,0.000501,1.000000,1.000000,1.000000
1768299698.020336,179.995752,-179.273709,178.698084,999.999939,1000.000039,1000.000093,0.000002,-0.000001,0.000895,0.000000,0.000000,0.000036,-0.000065,-0.000000,0.000218,-0.000346,0.015299,0.000000,0.000000,0.000000,0.000032,0.000033,0.002498,9.014401,9.014401,9.014401,0.250070,0.250070,0.250063,1.000000,1.000000,0.000001,0.000001,0.000001,0.002475,0.002474,0.000492,1.000000,1.000000,1.000000
1768299698.027904,179.995973,-179.272284,178.700011,999.999947,1000.000049,1000.000090,0.000001,-0.000001,0.000909,0.000000,0.000000,0.000034,-0.000044,-0.000000,0.000218,-0.000354,0.015535,0.000000,0.000000,0.000000,0.000032,0.000033,0.002498,9.015007,9.015007,9.015007,0.250072,0.250072,0.250065,1.000000,1.000000,0.000001,0.000001,0.000001,0.002475,0.002474,0.000484,1.000000,1.000000,1.000000
1768299698.030365,179.996261,-179.269643,178.700745,999.999961,1000.000053,1000.000093,0.000001,-0.000001,0.000912,0.000000,0.000000,0.000033,-0.000041,-0.000000,0.000214,-0.000357,0.015599,0.000000,0.000000,0.000000,0.000032,0.000033,0.002498,9.015626,9.015626,9.015626,0.250073,0.250073,0.250066,1.000000,1.000000,0.000001,0.000001,0.000001,0.002475,0.002474,0.000477,1.000000,1.000000,1.000000
1768299698.037711,179.996362,-179.268224,178.699214,999.999968,1000.000045,1000.000096,0.000001,-0.000001,0.000916,0.000000,0.000000,0.000033,-0.000040,-0.000000,0.000212,-0.000355,0.015656,0.000000,0.000000,0.000000,0.000032,0.000033,0.002498,9.016258,9.016258,9.016258,0.250075,0.250075,0.250068,1.000000,1.000000,0.000001,0.000001,0.000001,0.002475,0.002474,0.000469,1.000000,1.000000,1.000000
1768299698.040407,179.996379,-179.267955,178.698839,999.999970,1000.000042,1000.000098,0.000001,-0.000001,0.000919,0.000000,0.000000,0.000033,-0.000039,-0.000000,0.000212,-0.000356,0.015717,0.000000,0.000000,0.000000,0.000032,0.000033,0.002498,9.016901,9.016901,9.016901,0.250076,0.250076,0.250069,1.000000,1.000000,0.000001,0.000001,0.000001,0.002475,0.002474,0.000462,1.000000,1.000000,1.000000
1768299698.045340,179.996389,-179.268771,178.702784,999.999965,1000.000065,1000.000100,0.000001,-0.000002,0.000924,0.000000,0.000000,0.000030,-0.000039,0.000000,0.000215,-0.000365,0.015792,0.000000,0.000000,0.000000,0.000032,0.000033,0.002498,9.017558,9.017558,9.017558,0.250078,0.250078,0.250071,1.000000,1.000000,0.000001,0.000001,0.000001,0.002475,0.002474,0.000455,1.000000,1.000000,1.000000
1768299698.052950,179.996444,-179.268355,178.703267,999.999967,1000.000069,1000.000103,0.000001,-0.000002,0.000927,0.000000,0.000000,0.000012,-0.000056,0.000000,0.000215,-0.000367,0.015852,0.000000,0.000000,0.000000,0.000032,0.000033,0.002498,9.018227,9.018227,9.018227,0.250079,0.250079,0.250072,1.000000,1.000000,0.000001,0.000001,0.000001,0.002475,0.002474,0.000448,1.000000,1.000000,1.000000
1768299698.055432,179.996446,-179.267955,178.701656,999.999969,1000.000059,1000.000106,0.000001,-0.000001,0.000930,0.000000,0.000000,-0.000005,-0.000072,0.000000,0.000215,-0.000365,0.015904,0.000000,0.000000,0.000000,0.000032,0.000032,0.002498,9.018908,9.018908,9.018908,0.250080,0.250080,0.250074,1.000000,1.000000,0.000001,0.000001,0.000001,0.002475,0.002474,0.000441,1.000000,1.000000,1.000000
1768299698.062665,179.996354,-179.268735,178.701268,999.999964,1000.000057,1000.000108,0.000001,-0.000001,0.000933,0.000000,0.000000,-0.000005,-0.000071,-0.000000,0.000217,-0.000365,0.015959,0.000000,0.000000,0.000000,0.000031,0.000032,0.002498,9.019602,9.019602,9.019602,0.250082,0.250082,0.250075,1.000000,1.000000,0.000001,0.000001,0.000001,0.002475,0.002474,0.000435,1.000000,1.000000,1.000000
1768299698.065715,179.996319,-179.269487,178.702899,999.999959,1000.000068,1000.000111,0.000001,-0.000002,0.000937,0.000000,0.000000,-0.000006,-0.000070,-0.000000,0.000219,-0.000370,0.016020,0.000000,0.000000,0.000000,0.000031,0.000032,0.002498,9.020308,9.020308,9.020308,0.250083,0.250083,0.250076,1.000000,1.000000,0.000001,0.000001,0.000001,0.002475,0.002474,0.000428,1.000000,1.000000,1.000000
1768299698.070485,179.996287,-179.270190,178.704435,999.999954,1000.000078,1000.000102,0.000001,-0.000002,0.000957,0.000000,0.000000,-0.000006,-0.000069,-0.000000,0.000224,-0.000379,0.016360,0.000000,0.000000,0.000000,0.000031,0.000032,0.002498,9.021027,9.021027,9.021027,0.250085,0.250085,0.250078,1.000000,1.000000,0.000001,0.000001,0.000001,0.002475,0.002474,0.000422,1.000000,1.000000,1.000000
1768299698.077889,179.996095,-179.270894,178.701111,999.999949,1000.000054,1000.000105,0.000001,-0.000001,0.000959,0.000000,0.000000,-0.000004,-0.000069,-0.000000,0.000226,-0.000374,0.016397,0.000000,0.000000,0.000000,0.000031,0.000032,0.002498,9.021758,9.021758,9.021758,0.250086,0.250086,0.250079,1.000000,1.000000,0.000001,0.000001,0.000001,0.002475,0.002474,0.000416,1.000000,1.000000,1.000000
1768299698.080435,179.995944,-179.271586,178.698870,999.999944,1000.000038,1000.000114,0.000001,-0.000001,0.000953,0.000000,0.000000,-0.000003,-0.000068,-0.000000,0.000226,-0.000368,0.016299,0.000000,0.000000,0.000000,0.000031,0.000032,0.002498,9.022502,9.022502,9.022502,0.250088,0.250088,0.250081,1.000000,1.000000,0.000001,0.000001,0.000001,0.002475,0.002474,0.000410,1.000000,1.000000,1.000000
1768299698.087714,179.996005,-179.272389,178.702313,999.999939,1000.000064,1000.000116,0.000001,-0.000002,0.000957,0.000000,0.000000,-0.000005,-0.000052,-0.000000,0.000228,-0.000375,0.016358,0.000000,0.000000,0.000000,0.000031,0.000032,0.002498,9.023259,9.023259,9.023258,0.250089,0.250089,0.250082,1.000000,1.000000,0.000001,0.000001,0.000001,0.002475,0.002474,0.000405,1.000000,1.000000,1.000000
1768299698.090820,179.996072,-179.273030,178.705665,999.999934,1000.000091,1000.000124,0.000002,-0.000002,0.000952,0.000000,0.000000,-0.000007,-0.000051,-0.000000,0.000228,-0.000380,0.016281,0.000000,0.000000,0.000000,0.000031,0.000032,0.002498,9.024027,9.024027,9.024027,0.250091,0.250091,0.250084,1.000000,1.000000,0.000001,0.000001,0.000001,0.002475,0.002474,0.000399,1.000000,1.000000,1.000000
1768299698.095815,179.996090,-179.272754,178.705292,999.999936,1000.000088,1000.000139,0.000002,-0.000002,0.000939,0.000000,0.000000,-0.000006,-0.000050,-0.000000,0.000225,-0.000375,0.016062,0.000000,0.000000,0.000000,0.000031,0.000032,0.002498,9.024809,9.024809,9.024809,0.250092,0.250092,0.250085,1.000000,1.000000,0.000001,0.000001,0.000001,0.002475,0.002474,0.000394,1.000000,1.000000,1.000000
1768299698.102924,179.996071,-179.272476,178.704017,999.999938,1000.000077,1000.000148,0.000001,-0.000002,0.000934,0.000000,0.000000,-0.000006,-0.000049,-0.000000,0.000224,-0.000371,0.015976,0.000000,0.000000,0.000000,0.000031,0.000032,0.002498,9.025603,9.025603,9.025603,0.250094,0.250094,0.250087,1.000000,1.000000,0.000001,0.000001,0.000001,0.002475,0.002474,0.000389,1.000000,1.000000,1.000000
1768299698.105486,179.996100,-179.272200,178.703643,999.999941,1000.000074,1000.000151,0.000001,-0.000002,0.000937,0.000000,0.000000,-0.000005,-0.000048,0.000015,0.000224,-0.000371,0.016022,0.000000,0.000000,0.000000,0.000031,0.000032,0.002498,9.026409,9.026409,9.026409,0.250095,0.250095,0.250088,1.000000,1.000000,0.000001,0.000001,0.000001,0.002475,0.002474,0.000384,1.000000,1.000000,1.000000
1768299698.112642,179.996194,-179.271062,178.702412,999.999951,1000.000063,1000.000153,0.000001,-0.000002,0.000939,0.000000,0.000000,-0.000004,-0.000047,0.000029,0.000222,-0.000370,0.016063,0.000000,0.000000,0.000000,0.000031,0.000032,0.002498,9.027228,9.027228,9.027228,0.250097,0.250097,0.250089,1.000000,1.000000,0.000001,0.000001,0.000001,0.002475,0.002474,0.000379,1.000000,1.000000,1.000000
1768299698.115391,179.996226,-179.269969,178.699520,999.999961,1000.000036,1000.000163,0.000001,-0.000001,0.000934,0.000000,0.000000,-0.000003,-0.000046,0.000043,0.000219,-0.000362,0.015972,0.000000,0.000000,0.000000,0.000031,0.000032,0.002498,9.028059,9.028059,9.028059,0.250098,0.250098,0.250091,1.000000,1.000000,0.000001,0.000001,0.000001,0.002475,0.002474,0.000374,1.000000,1.000000,1.000000
1768299698.120347,179.996142,-179.269759,178.695888,999.999963,1000.000001,1000.000180,0.000001,-0.000001,0.000922,0.000000,0.000000,-0.000000,-0.000045,0.000042,0.000216,-0.000351,0.015760,0.000000,0.000000,0.000000,0.000031,0.000031,0.002498,9.028903,9.028903,9.028903,0.250100,0.250100,0.250092,1.000000,1.000000,0.000001,0.000001,0.000001,0.002475,0.002474,0.000369,1.000000,1.000000,1.000000
1768299698.127988,179.996080,-179.271074,178.697357,999.999950,1000.000016,1000.000195,0.000001,-0.000001,0.000911,0.000000,0.000000,-0.000001,-0.000059,0.000042,0.000216,-0.000350,0.015572,0.000000,0.000000,0.000000,0.000031,0.000031,0.002498,9.029760,9.029760,9.029759,0.250101,0.250101,0.250094,1.000000,1.000000,0.000001,0.000001,0.000001,0.002475,0.002474,0.000365,1.000000,1.000000,1.000000
1768299698.130376,179.996021,-179.272341,178.698766,999.999936,1000.000030,1000.000203,0.000001,-0.000001,0.000907,0.000000,0.000000,-0.000002,-0.000073,0.000041,0.000218,-0.000351,0.015509,0.000000,0.000000,0.000000,0.000030,0.000031,0.002498,9.030629,9.030629,9.030628,0.250102,0.250102,0.250095,1.000000,1.000000,0.000001,0.000001,0.000001,0.002475,0.002474,0.000360,1.000000,1.000000,1.000000
1768299698.137725,179.995934,-179.272764,178.697706,999.999931,1000.000019,1000.000212,0.000002,-0.000001,0.000903,0.000000,0.000000,-0.000001,-0.000086,0.000041,0.000218,-0.000348,0.015438,0.000000,0.000000,0.000000,0.000030,0.000031,0.002498,9.031510,9.031510,9.031510,0.250104,0.250104,0.250097,1.000000,1.000000,0.000001,0.000001,0.000001,0.002475,0.002474,0.000356,1.000000,1.000000,1.000000
1768299698.140443,179.995849,-179.273166,178.696659,999.999925,1000.000008,1000.000214,0.000002,-0.000001,0.000906,0.000000,0.000000,-0.000001,-0.000098,0.000040,0.000219,-0.000347,0.015485,0.000000,0.000000,0.000000,0.000030,0.000031,0.002498,9.032404,9.032404,9.032404,0.250105,0.250105,0.250098,1.000000,1.000000,0.000001,0.000001,0.000001,0.002475,0.002474,0.000352,1.000000,1.000000,1.000000
1768299698.145338,179.995809,-179.274490,178.698005,999.999911,1000.000023,1000.000215,0.000002,-0.000001,0.000909,0.000000,0.000000,-0.000002,-0.000098,0.000039,0.000223,-0.000351,0.015541,0.000000,0.000000,0.000000,0.000030,0.000031,0.002498,9.033310,9.033310,9.033310,0.250107,0.250107,0.250100,1.000000,1.000000,0.000001,0.000001,0.000001,0.002475,0.002474,0.000348,1.000000,1.000000,1.000000
1768299698.152936,179.995950,-179.274223,178.700094,999.999914,1000.000046,1000.000215,0.000002,-0.000001,0.000912,0.000000,0.000000,-0.000003,-0.000097,0.000039,0.000223,-0.000356,0.015596,0.000000,0.000000,0.000000,0.000030,0.000031,0.002498,9.034229,9.034229,9.034229,0.250108,0.250108,0.250101,1.000000,1.000000,0.000001,0.000001,0.000001,0.002475,0.002474,0.000344,1.000000,1.000000,1.000000
1768299698.155377,179.996067,-179.273191,178.700593,999.999926,1000.000052,1000.000217,0.000002,-0.000001,0.000915,0.000000,0.000000,-0.000003,-0.000095,0.000026,0.000221,-0.000358,0.015642,0.000000,0.000000,0.000000,0.000030,0.000031,0.002498,9.035161,9.035161,9.035160,0.250110,0.250110,0.250102,1.000000,1.000000,0.000001,0.000001,0.000001,0.002475,0.002474,0.000340,1.000000,1.000000,1.000000
1768299698.162620,179.996097,-179.272341,178.699578,999.999937,1000.000040,1000.000226,0.000001,-0.000001,0.000911,0.000000,0.000000,-0.000003,-0.000080,0.000013,0.000219,-0.000354,0.015571,0.000000,0.000000,0.000000,0.000030,0.000031,0.002498,9.036105,9.036105,9.036104,0.250111,0.250111,0.250104,1.000000,1.000000,0.000001,0.000001,0.000001,0.002475,0.002474,0.000336,1.000000,1.000000,1.000000
1768299698.165615,179.996088,-179.272253,178.699322,999.999940,1000.000037,1000.000228,0.000001,-0.000001,0.000913,0.000000,0.000000,-0.000002,-0.000066,-0.000000,0.000219,-0.000355,0.015616,0.000000,0.000000,0.000000,0.000030,0.000031,0.002498,9.037061,9.037061,9.037061,0.250113,0.250113,0.250105,1.000000,1.000000,0.000001,0.000001,0.000001,0.002475,0.002474,0.000332,1.000000,1.000000,1.000000
1768299698.170527,179.996169,-179.272167,178.701293,999.999942,1000.000061,1000.000229,0.000001,-0.000001,0.000916,0.000000,0.000000,-0.000004,-0.000053,-0.000012,0.000220,-0.000359,0.015667,0.000000,0.000000,0.000000,0.000030,0.000031,0.002498,9.038030,9.038030,9.038030,0.250114,0.250114,0.250107,1.000000,1.000000,0.000001,0.000001,0.000001,0.002475,0.002474,0.000329,1.000000,1.000000,1.000000
1768299698.177943,179.996221,-179.271207,178.700291,999.999954,1000.000048,1000.000230,0.000001,-0.000001,0.000919,0.000000,0.000000,-0.000003,-0.000052,-0.000024,0.000218,-0.000358,0.015705,0.000000,0.000000,0.000000,0.000030,0.000031,0.002498,9.039011,9.039011,9.039011,0.250116,0.250116,0.250108,1.000000,1.000000,0.000001,0.000001,0.000001,0.002475,0.002474,0.000325,1.000000,1.000000,1.000000
1768299698.180368,179.996272,-179.270270,178.699313,999.999967,1000.000035,1000.000232,0.000001,-0.000001,0.000921,0.000000,0.000000,-0.000002,-0.000050,-0.000036,0.000217,-0.000357,0.015743,0.000000,0.000000,0.000000,0.000030,0.000031,0.002498,9.040005,9.040005,9.040005,0.250117,0.250117,0.250110,1.000000,1.000000,0.000001,0.000001,0.000001,0.002475,0.002474,0.000321,1.000000,1.000000,1.000000
1768299698.187707,179.996342,-179.270081,178.701226,999.999969,1000.000061,1000.000241,0.000001,-0.000001,0.000917,0.000000,0.000000,-0.000004,-0.000050,-0.000036,0.000216,-0.000360,0.015686,0.000000,0.000000,0.000000,0.000030,0.000031,0.002498,9.041012,9.041012,9.041012,0.250119,0.250119,0.250111,1.000000,1.000000,0.000001,0.000001,0.000001,0.002475,0.002474,0.000318,1.000000,1.000000,1.000000
1768299698.190402,179.996503,-179.269191,178.703799,999.999982,1000.000097,1000.000250,0.000001,-0.000002,0.000914,0.000000,0.000000,-0.000006,-0.000048,-0.000035,0.000213,-0.000364,0.015630,0.000000,0.000000,0.000000,0.000030,0.000031,0.002498,9.042031,9.042031,9.042030,0.250120,0.250120,0.250113,1.000000,1.000000,0.000001,0.000001,0.000001,0.002475,0.002474,0.000315,1.000000,1.000000,1.000000
1768299698.195345,179.996641,-179.268177,178.704916,999.999995,1000.000112,1000.000260,0.000001,-0.000002,0.000911,0.000000,0.000000,-0.000006,-0.000059,-0.000035,0.000211,-0.000365,0.015571,0.000000,0.000000,0.000000,0.000030,0.000031,0.002498,9.043062,9.043062,9.043062,0.250122,0.250122,0.250114,1.000000,1.000000,0.000001,0.000001,0.000001,0.002475,0.002474,0.000311,1.000000,1.000000,1.000000
1768299698.203024,179.996717,-179.267188,178.702416,1000.000008,1000.000078,1000.000270,0.000001,-0.000002,0.000907,0.000000,0.000000,-0.000016,-0.000069,-0.000035,0.000208,-0.000358,0.015502,0.000000,0.000000,0.000000,0.000030,0.000031,0.002498,9.044106,9.044106,9.044106,0.250123,0.250123,0.250116,1.000000,1.000000,0.000001,0.000001,0.000001,0.002475,0.002474,0.000308,1.000000,1.000000,1.000000
1768299698.205381,179.996723,-179.266903,178.700655,1000.000011,1000.000053,1000.000280,0.000001,-0.000001,0.000903,0.000000,0.000000,-0.000026,-0.000079,-0.000034,0.000207,-0.000354,0.015437,0.000000,0.000000,0.000000,0.000030,0.000031,0.002498,9.045163,9.045163,9.045162,0.250124,0.250124,0.250117,1.000000,1.000000,0.000001,0.000001,0.000001,0.002475,0.002474,0.000305,1.000000,1.000000,1.000000
1768299698.212617,179.996685,-179.267290,178.701088,1000.000003,1000.000060,1000.000281,0.000001,-0.000001,0.000906,0.000000,0.000000,-0.000026,-0.000090,-0.000034,0.000208,-0.000355,0.015483,0.000000,0.000000,0.000000,0.000030,0.000031,0.002498,9.046232,9.046232,9.046231,0.250126,0.250126,0.250118,1.000000,1.000000,0.000001,0.000001,0.000001,0.002475,0.002474,0.000302,1.000000,1.000000,1.000000
1768299698.215372,179.996568,-179.268335,178.700845,999.999986,1000.000056,1000.000281,0.000001,-0.000001,0.000908,0.000000,0.000000,-0.000025,-0.000101,-0.000033,0.000211,-0.000356,0.015526,0.000000,0.000000,0.000000,0.000030,0.000031,0.002498,9.047313,9.047313,9.047313,0.250127,0.250127,0.250120,1.000000,1.000000,0.000001,0.000001,0.000001,0.002475,0.002474,0.000299,1.000000,1.000000,1.000000
1768299698.222690,179.996421,-179.269365,178.699302,999.999968,1000.000031,1000.000292,0.000001,-0.000001,0.000905,0.000000,0.000000,-0.000024,-0.000112,-0.000033,0.000212,-0.000352,0.015466,0.000000,0.000000,0.000000,0.000030,0.000030,0.002498,9.048407,9.048407,9.048407,0.250129,0.250129,0.250121,1.000000,1.000000,0.000001,0.000001,0.000001,0.002475,0.002474,0.000296,1.000000,1.000000,1.000000
1768299698.227895,179.996349,-179.270509,178.700388,999.999950,1000.000049,1000.000291,0.000001,-0.000001,0.000907,0.000000,0.000000,-0.000024,-0.000112,-0.000033,0.000215,-0.000355,0.015514,0.000000,0.000000,0.000000,0.000030,0.000030,0.002498,9.049514,9.049514,9.049513,0.250130,0.250130,0.250123,1.000000,1.000000,0.000001,0.000001,0.000001,0.002475,0.002474,0.000293,1.000000,1.000000,1.000000
1768299698.230411,179.996328,-179.271627,178.702742,999.999931,1000.000088,1000.000291,0.000001,-0.000002,0.000910,0.000000,0.000000,-0.000026,-0.000111,-0.000032,0.000218,-0.000360,0.015564,0.000000,0.000000,0.000000,0.000030,0.000030,0.002498,9.050633,9.050633,9.050632,0.250132,0.250132,0.250124,1.000000,1.000000,0.000001,0.000001,0.000001,0.002475,0.002474,0.000290,1.000000,1.000000,1.000000
1768299698.237743,179.996441,-179.270807,178.703129,999.999946,1000.000094,1000.000292,0.000001,-0.000002,0.000912,0.000000,0.000000,-0.000026,-0.000109,-0.000032,0.000216,-0.000362,0.015604,0.000000,0.000000,0.000000,0.000029,0.000030,0.002498,9.051764,9.051764,9.051764,0.250133,0.250133,0.250126,1.000000,1.000000,0.000001,0.000001,0.000001,0.002475,0.002474,0.000287,1.000000,1.000000,1.000000
1768299698.240495,179.996576,-179.269356,178.702218,999.999971,1000.000078,1000.000273,0.000001,-0.000002,0.000926,0.000000,0.000000,-0.000025,-0.000107,-0.000032,0.000216,-0.000365,0.015826,0.000000,0.000000,0.000000,0.000029,0.000030,0.002498,9.052908,9.052908,9.052908,0.250135,0.250135,0.250127,1.000000,1.000000,0.000001,0.000001,0.000001,0.002475,0.002474,0.000284,1.000000,1.000000,1.000000
1768299698.247704,179.996556,-179.269348,178.701352,999.999973,1000.000063,1000.000274,0.000001,-0.000001,0.000928,0.000000,0.000000,-0.000024,-0.000095,-0.000031,0.000217,-0.000364,0.015860,0.000000,0.000000,0.000000,0.000029,0.000030,0.002498,9.054065,9.054065,9.054064,0.250136,0.250136,0.250129,1.000000,1.000000,0.000001,0.000001,0.000001,0.002475,0.002474,0.000282,1.000000,1.000000,1.000000
1768299698.252907,179.996638,-179.268728,178.701755,999.999986,1000.000070,1000.000285,0.000001,-0.000001,0.000924,0.000000,0.000000,-0.000024,-0.000083,-0.000031,0.000215,-0.000363,0.015803,0.000000,0.000000,0.000000,0.000029,0.000030,0.002498,9.055234,9.055234,9.055233,0.250138,0.250138,0.250130,1.000000,1.000000,0.000001,0.000001,0.000001,0.002475,0.002474,0.000279,1.000000,1.000000,1.000000
1768299698.255463,179.996848,-179.266741,178.701523,1000.000023,1000.000066,1000.000286,0.000001,-0.000001,0.000926,0.000000,0.000000,-0.000024,-0.000081,-0.000031,0.000211,-0.000363,0.015834,0.000000,0.000000,0.000000,0.000029,0.000030,0.002498,9.056415,9.056415,9.056415,0.250139,0.250139,0.250132,1.000000,1.000000,0.000001,0.000001,0.000001,0.002475,0.002474,0.000277,1.000000,1.000000,1.000000
1768299698.262683,179.996968,-179.265411,178.698880,1000.000048,1000.000016,1000.000298,0.000001,-0.000001,0.000922,0.000000,0.000000,-0.000021,-0.000079,-0.000030,0.000208,-0.000357,0.015767,0.000000,0.000000,0.000000,0.000029,0.000030,0.002498,9.057609,9.057609,9.057609,0.250141,0.250141,0.250133,1.000000,1.000000,0.000001,0.000001,0.000001,0.002475,0.002474,0.000274,1.000000,1.000000,1.000000
1768299698.265649,179.997031,-179.264716,178.697506,1000.000061,999.999990,1000.000320,0.000000,-0.000001,0.000913,0.000000,0.000000,-0.000020,-0.000077,-0.000030,0.000204,-0.000351,0.015616,0.000000,0.000000,0.000000,0.000029,0.000030,0.002498,9.058816,9.058816,9.058815,0.250142,0.250142,0.250135,1.000000,1.000000,0.000001,0.000001,0.000001,0.002475,0.002474,0.000272,1.000000,1.000000,1.000000
1768299698.270567,179.997077,-179.264016,178.697923,1000.000075,999.999998,1000.000321,0.000000,-0.000001,0.000916,0.000000,0.000000,-0.000020,-0.000076,-0.000040,0.000203,-0.000353,0.015652,0.000000,0.000000,0.000000,0.000029,0.000030,0.002498,9.060035,9.060035,9.060034,0.250143,0.250143,0.250136,1.000000,1.000000,0.000001,0.000001,0.000001,0.002475,0.002474,0.000269,1.000000,1.000000,1.000000
1768299698.277867,179.997091,-179.263621,178.698909,1000.000079,1000.000018,1000.000310,0.000000,-0.000001,0.000923,0.000000,0.000000,-0.000021,-0.000095,-0.000049,0.000204,-0.000357,0.015780,0.000000,0.000000,0.000000,0.000029,0.000030,0.002498,9.061266,9.061266,9.061266,0.250145,0.250145,0.250137,1.000000,1.000000,0.000001,0.000001,0.000001,0.002475,0.002474,0.000267,1.000000,1.000000,1.000000
1768299698.280389,179.997111,-179.263241,178.699304,1000.000083,1000.000026,1000.000310,0.000000,-0.000001,0.000925,0.000000,0.000000,-0.000021,-0.000113,-0.000058,0.000204,-0.000359,0.015816,0.000000,0.000000,0.000000,0.000029,0.000030,0.002498,9.062511,9.062511,9.062510,0.250146,0.250146,0.250139,1.000000,1.000000,0.000001,0.000001,0.000001,0.002475,0.002474,0.000264,1.000000,1.000000,1.000000
1768299698.287723,179.997067,-179.263594,178.699692,1000.000074,1000.000033,1000.000310,0.000000,-0.000001,0.000927,0.000000,0.000000,-0.000021,-0.000122,-0.000067,0.000205,-0.000360,0.015852,0.000000,0.000000,0.000000,0.000029,0.000030,0.002498,9.063767,9.063767,9.063767,0.250148,0.250148,0.250140,1.000000,1.000000,0.000001,0.000001,0.000001,0.002475,0.002474,0.000262,1.000000,1.000000,1.000000
1768299698.290868,179.997020,-179.263939,178.701219,1000.000065,1000.000066,1000.000310,0.000000,-0.000001,0.000929,0.000000,0.000000,-0.000022,-0.000131,-0.000076,0.000207,-0.000364,0.015891,0.000000,0.000000,0.000000,0.000029,0.000030,0.002498,9.065036,9.065036,9.065036,0.250149,0.250149,0.250142,1.000000,1.000000,0.000001,0.000001,0.000001,0.002475,0.002474,0.000260,1.000000,1.000000,1.000000
1768299698.295788,179.996915,-179.264854,178.702729,1000.000043,1000.000098,1000.000321,0.000000,-0.000002,0.000927,0.000000,0.000000,-0.000023,-0.000140,-0.000085,0.000208,-0.000366,0.015845,0.000000,0.000000,0.000000,0.000029,0.000030,0.002498,9.066318,9.066318,9.066317,0.250151,0.250151,0.250143,1.000000,1.000000,0.000001,0.000001,0.000001,0.002475,0.002474,0.000257,1.000000,1.000000,1.000000
1768299698.302918,179.996778,-179.265891,178.701382,1000.000021,1000.000068,1000.000321,0.000001,-0.000001,0.000928,0.000000,0.000000,-0.000022,-0.000140,-0.000094,0.000210,-0.000364,0.015875,0.000000,0.000000,0.000000,0.000029,0.000030,0.002498,9.067612,9.067612,9.067611,0.250152,0.250152,0.250145,1.000000,1.000000,0.000001,0.000001,0.000001,0.002475,0.002474,0.000255,1.000000,1.000000,1.000000
1768299698.305346,179.996641,-179.266912,178.699501,999.999998,1000.000026,1000.000322,0.000001,-0.000001,0.000930,0.000000,0.000000,-0.000020,-0.000139,-0.000093,0.000213,-0.000361,0.015903,0.000000,0.000000,0.000000,0.000029,0.000030,0.002498,9.068918,9.068918,9.068918,0.250154,0.250154,0.250146,1.000000,1.000000,0.000001,0.000001,0.000001,0.002475,0.002474,0.000253,1.000000,1.000000,1.000000
1768299698.312632,179.996512,-179.268612,178.700566,999.999962,1000.000048,1000.000322,0.000001,-0.000001,0.000932,0.000000,0.000000,-0.000011,-0.000130,-0.000092,0.000216,-0.000364,0.015941,0.000000,0.000000,0.000000,0.000029,0.000030,0.002498,9.070238,9.070238,9.070237,0.250155,0.250155,0.250148,1.000000,1.000000,0.000001,0.000001,0.000001,0.002475,0.002474,0.000251,1.000000,1.000000,1.000000
1768299698.315388,179.996439,-179.269732,178.701612,999.999939,1000.000070,1000.000321,0.000001,-0.000001,0.000934,0.000000,0.000000,-0.000003,-0.000121,-0.000091,0.000219,-0.000366,0.015977,0.000000,0.000000,0.000000,0.000029,0.000030,0.002498,9.071569,9.071569,9.071569,0.250157,0.250157,0.250149,1.000000,1.000000,0.000001,0.000001,0.000001,0.002475,0.002474,0.000249,1.000000,1.000000,1.000000
1768299698.320363,179.996435,-179.269745,178.701551,999.999941,1000.000067,1000.000322,0.000001,-0.000001,0.000936,0.000000,0.000000,0.000006,-0.000111,-0.000090,0.000219,-0.000367,0.016007,0.000000,0.000000,0.000000,0.000029,0.000030,0.002498,9.072913,9.072913,9.072913,0.250158,0.250158,0.250151,1.000000,1.000000,0.000001,0.000001,0.000001,0.002475,0.002474,0.000247,1.000000,1.000000,1.000000
1768299698.327954,179.996410,-179.269764,178.700818,999.999943,1000.000049,1000.000334,0.000001,-0.000001,0.000933,0.000000,0.000000,0.000007,-0.000101,-0.000090,0.000219,-0.000364,0.015953,0.000000,0.000000,0.000000,0.000029,0.000030,0.002498,9.074270,9.074270,9.074269,0.250160,0.250160,0.250152,1.000000,1.000000,0.000001,0.000001,0.000001,0.002475,0.002474,0.000245,1.000000,1.000000,1.000000
1768299698.330404,179.996474,-179.269241,178.701156,999.999959,1000.000057,1000.000334,0.000001,-0.000001,0.000935,0.000000,0.000000,0.000006,-0.000090,-0.000089,0.000218,-0.000366,0.015983,0.000000,0.000000,0.000000,0.000029,0.000030,0.002498,9.075639,9.075639,9.075638,0.250161,0.250161,0.250153,1.000000,1.000000,0.000001,0.000001,0.000001,0.002475,0.002474,0.000243,1.000000,1.000000,1.000000
1768299698.337754,179.996599,-179.268044,178.701477,999.999989,1000.000065,1000.000323,0.000001,-0.000001,0.000941,0.000000,0.000000,0.000006,-0.000088,-0.000088,0.000217,-0.000369,0.016092,0.000000,0.000000,0.000000,0.000029,0.000030,0.002498,9.077021,9.077021,9.077020,0.250163,0.250163,0.250155,1.000000,1.000000,0.000001,0.000001,0.000001,0.002475,0.002474,0.000241,1.000000,1.000000,1.000000
1768299698.340508,179.996712,-179.266869,178.701266,1000.000019,1000.000060,1000.000311,0.000001,-0.000001,0.000947,0.000000,0.000000,0.000006,-0.000086,-0.000087,0.000216,-0.000370,0.016197,0.000000,0.000000,0.000000,0.000029,0.000030,0.002498,9.078415,9.078415,9.078414,0.250164,0.250164,0.250156,1.000000,1.000000,0.000001,0.000001,0.000001,0.002475,0.002474,0.000239,1.000000,1.000000,1.000000
1768299698.347703,179.996762,-179.266249,178.700037,1000.000035,1000.000028,1000.000325,0.000001,-0.000001,0.000944,0.000000,0.000000,0.000007,-0.000085,-0.000086,0.000214,-0.000367,0.016140,0.000000,0.000000,0.000000,0.000029,0.000030,0.002498,9.079821,9.079821,9.079821,0.250165,0.250165,0.250158,1.000000,1.000000,0.000001,0.000001,0.000001,0.002475,0.002474,0.000237,1.000000,1.000000,1.000000
1768299698.352993,179.996787,-179.266004,178.700888,1000.000039,1000.000050,1000.000325,0.000001,-0.000001,0.000946,0.000000,0.000000,0.000006,-0.000093,-0.000086,0.000214,-0.000369,0.016171,0.000000,0.000000,0.000000,0.000029,0.000030,0.002498,9.081241,9.081241,9.081240,0.250167,0.250167,0.250159,1.000000,1.000000,0.000001,0.000001,0.000001,0.002475,0.002474,0.000235,1.000000,1.000000,1.000000
1768299698.355381,179.996766,-179.266270,178.702228,1000.000029,1000.000086,1000.000311,0.000001,-0.000002,0.000952,0.000000,0.000000,0.000005,-0.000101,-0.000085,0.000216,-0.000374,0.016281,0.000000,0.000000,0.000000,0.000029,0.000030,0.002498,9.082672,9.082672,9.082672,0.250168,0.250168,0.250161,1.000000,1.000000,0.000001,0.000001,0.000001,0.002475,0.002474,0.000233,1.000000,1.000000,1.000000
1768299698.362641,179.996732,-179.266539,178.701883,1000.000020,1000.000079,1000.000312,0.000001,-0.000001,0.000954,0.000000,0.000000,-0.000003,-0.000109,-0.000084,0.000217,-0.000374,0.016308,0.000000,0.000000,0.000000,0.000029,0.000030,0.002498,9.084116,9.084116,9.084116,0.250170,0.250170,0.250162,1.000000,1.000000,0.000001,0.000001,0.000001,0.002475,0.002474,0.000231,1.000000,1.000000,1.000000
1768299698.365634,179.996691,-179.266803,178.701038,1000.000010,1000.000059,1000.000313,0.000001,-0.000001,0.000955,0.000000,0.000000,-0.000011,-0.000117,-0.000083,0.000218,-0.000373,0.016332,0.000000,0.000000,0.000000,0.000029,0.000030,0.002498,9.085573,9.085573,9.085572,0.250171,0.250171,0.250164,1.000000,1.000000,0.000001,0.000001,0.000001,0.002475,0.002474,0.000230,1.000000,1.000000,1.000000
1768299698.370506,179.996662,-179.267051,178.700833,1000.000001,1000.000053,1000.000287,0.000001,-0.000001,0.000966,0.000000,0.000000,-0.000010,-0.000124,-0.000083,0.000220,-0.000376,0.016509,0.000000,0.000000,0.000000,0.000029,0.000030,0.002498,9.087042,9.087042,9.087042,0.250173,0.250173,0.250165,1.000000,1.000000,0.000001,0.000001,0.000001,0.002475,0.002474,0.000228,1.000000,1.000000,1.000000
1768299698.377943,179.996690,-179.266942,178.701627,1000.000004,1000.000075,1000.000261,0.000001,-0.000001,0.000976,0.000000,0.000000,-0.000011,-0.000123,-0.000082,0.000222,-0.000381,0.016686,0.000000,0.000000,0.000000,0.000029,0.000030,0.002498,9.088524,9.088524,9.088523,0.250174,0.250174,0.250167,1.000000,1.000000,0.000001,0.000001,0.000001,0.002475,0.002474,0.000226,1.000000,1.000000,1.000000
1768299698.380386,179.996697,-179.266842,178.701431,1000.000008,1000.000070,1000.000249,0.000001,-0.000001,0.000982,0.000000,0.000000,-0.000011,-0.000122,-0.000081,0.000223,-0.000383,0.016782,0.000000,0.000000,0.000000,0.000029,0.000030,0.002499,9.090018,9.090018,9.090018,0.250176,0.250176,0.250168,1.000000,1.000000,0.000001,0.000001,0.000001,0.002475,0.002474,0.000225,1.000000,1.000000,1.000000
1768299698.387678,179.996614,-179.267391,178.699787,999.999995,1000.000021,1000.000264,0.000001,-0.000001,0.000978,0.000000,0.000000,-0.000009,-0.000113,-0.000081,0.000224,-0.000378,0.016725,0.000000,0.000000,0.000000,0.000029,0.000030,0.002499,9.091525,9.091525,9.091524,0.250177,0.250177,0.250170,1.000000,1.000000,0.000001,0.000001,0.000001,0.002475,0.002474,0.000223,1.000000,1.000000,1.000000
1768299698.390389,179.996555,-179.267931,178.699143,999.999982,1000.000002,1000.000279,0.000001,-0.000001,0.000975,0.000000,0.000000,-0.000008,-0.000105,-0.000080,0.000224,-0.000376,0.016672,0.000000,0.000000,0.000000,0.000029,0.000030,0.002499,9.093044,9.093044,9.093043,0.250179,0.250179,0.250171,1.000000,1.000000,0.000001,0.000001,0.000001,0.002475,0.002474,0.000221,1.000000,1.000000,1.000000
1768299698.397696,179.996540,-179.268462,178.700441,999.999969,1000.000041,1000.000292,0.000001,-0.000001,0.000972,0.000000,0.000000,-0.000010,-0.000097,-0.000080,0.000225,-0.000377,0.016626,0.000000,0.000000,0.000000,0.000029,0.000030,0.002499,9.094576,9.094576,9.094575,0.250180,0.250180,0.250172,1.000000,1.000000,0.000001,0.000001,0.000001,0.002475,0.002474,0.000220,1.000000,1.000000,1.000000
1768299698.402893,179.996501,-179.268840,178.700280,999.999958,1000.000037,1000.000307,0.000001,-0.000001,0.000969,0.000000,0.000000,-0.000009,-0.000096,-0.000079,0.000225,-0.000376,0.016576,0.000000,0.000000,0.000000,0.000029,0.000030,0.002499,9.096120,9.096120,9.096119,0.250182,0.250182,0.250174,1.000000,1.000000,0.000001,0.000001,0.000001,0.002475,0.002474,0.000218,1.000000,1.000000,1.000000
1768299698.405468,179.996451,-179.269205,178.699636,999.999947,1000.000016,1000.000307,0.000001,-0.000001,0.000971,0.000000,0.000000,-0.000009,-0.000096,-0.000078,0.000226,-0.000375,0.016597,0.000000,0.000000,0.000000,0.000029,0.000030,0.002499,9.097677,9.097677,9.097676,0.250183,0.250183,0.250175,1.000000,1.000000,0.000001,0.000001,0.000001,0.002475,0.002474,0.000216,1.000000,1.000000,1.000000
1768299698.412679,179.996485,-179.269093,178.700418,999.999950,1000.000041,1000.000308,0.000001,-0.000001,0.000972,0.000000,0.000000,-0.000009,-0.000095,-0.000078,0.000226,-0.000377,0.016621,0.000000,0.000000,0.000000,0.000029,0.000029,0.002499,9.099246,9.099246,9.099245,0.250185,0.250185,0.250177,1.000000,1.000000,0.000001,0.000001,0.000001,0.002475,0.002474,0.000215,1.000000,1.000000,1.000000
1768299698.415401,179.996531,-179.268976,178.701649,999.999955,1000.000081,1000.000293,0.000001,-0.000001,0.000978,0.000000,0.000000,-0.000011,-0.000094,-0.000077,0.000227,-0.000382,0.016718,0.000000,0.000000,0.000000,0.000029,0.000029,0.002499,9.100828,9.100828,9.100827,0.250186,0.250186,0.250178,1.000000,1.000000,0.000001,0.000001,0.000001,0.002475,0.002474,0.000213,1.000000,1.000000,1.000000
1768299698.420418,179.996673,-179.267778,178.702385,999.999991,1000.000104,1000.000266,0.000001,-0.000002,0.000987,0.000000,0.000000,-0.000012,-0.000100,-0.000076,0.000226,-0.000387,0.016880,0.000000,0.000000,0.000000,0.000029,0.000029,0.002499,9.102422,9.102422,9.102421,0.250187,0.250187,0.250180,1.000000,1.000000,0.000001,0.000001,0.000001,0.002475,0.002474,0.000212,1.000000,1.000000,1.000000
1768299698.427941,179.996818,-179.266142,178.700662,1000.000042,1000.000051,1000.000254,0.000001,-0.000001,0.000992,0.000000,0.000000,-0.000017,-0.000105,-0.000076,0.000224,-0.000385,0.016961,0.000000,0.000000,0.000000,0.000029,0.000029,0.002499,9.104029,9.104029,9.104028,0.250189,0.250189,0.250181,1.000000,1.000000,0.000001,0.000001,0.000001,0.002475,0.002474,0.000210,1.000000,1.000000,1.000000
1768299698.430405,179.996919,-179.264996,178.699432,1000.000078,1000.000013,1000.000256,0.000000,-0.000001,0.000993,0.000000,0.000000,-0.000023,-0.000110,-0.000075,0.000222,-0.000383,0.016975,0.000000,0.000000,0.000000,0.000029,0.000029,0.002499,9.105648,9.105648,9.105647,0.250190,0.250190,0.250183,1.000000,1.000000,0.000001,0.000001,0.000001,0.002475,0.002474,0.000209,1.000000,1.000000,1.000000
1768299698.437729,179.996925,-179.264923,178.700192,1000.000080,1000.000038,1000.000257,0.000000,-0.000001,0.000994,0.000000,0.000000,-0.000024,-0.000109,-0.000075,0.000222,-0.000385,0.016996,0.000000,0.000000,0.000000,0.000029,0.000029,0.002499,9.107280,9.107280,9.107279,0.250192,0.250192,0.250184,1.000000,1.000000,0.000001,0.000001,0.000001,0.002475,0.002474,0.000207,1.000000,1.000000,1.000000
1768299698.440423,179.996930,-179.264852,178.700941,1000.000083,1000.000064,1000.000257,0.000000,-0.000001,0.000995,0.000000,0.000000,-0.000025,-0.000108,-0.000074,0.000222,-0.000387,0.017016,0.000000,0.000000,0.000000,0.000029,0.000029,0.002499,9.108924,9.108924,9.108923,0.250193,0.250193,0.250186,1.000000,1.000000,0.000001,0.000001,0.000001,0.002475,0.002474,0.000206,1.000000,1.000000,1.000000
1768299698.447696,179.996895,-179.265238,178.699888,1000.000070,1000.000027,1000.000274,0.000001,-0.000001,0.000992,0.000000,0.000000,-0.000023,-0.000108,-0.000074,0.000222,-0.000383,0.016964,0.000000,0.000000,0.000000,0.000028,0.000029,0.002499,9.110581,9.110581,9.110580,0.250195,0.250195,0.250187,1.000000,1.000000,0.000001,0.000001,0.000001,0.002475,0.002474,0.000205,1.000000,1.000000,1.000000
1768299698.452991,179.996779,-179.266512,178.700191,1000.000025,1000.000038,1000.000289,0.000001,-0.000001,0.000990,0.000000,0.000000,-0.000023,-0.000109,-0.000073,0.000224,-0.000383,0.016918,0.000000,0.000000,0.000000,0.000028,0.000029,0.002499,9.112250,9.112250,9.112250,0.250196,0.250196,0.250189,1.000000,1.000000,0.000001,0.000001,0.000001,0.002475,0.002474,0.000203,1.000000,1.000000,1.000000
1768299698.455395,179.996675,-179.267763,178.701370,999.999981,1000.000080,1000.000288,0.000001,-0.000001,0.000991,0.000000,0.000000,-0.000025,-0.000110,-0.000073,0.000227,-0.000386,0.016943,0.000000,0.000000,0.000000,0.000028,0.000029,0.002499,9.113932,9.113932,9.113931,0.250198,0.250198,0.250190,1.000000,1.000000,0.000000,0.000000,0.000001,0.002475,0.002474,0.000202,1.000000,1.000000,1.000000
1768299698.462663,179.996653,-179.268113,178.701944,999.999968,1000.000105,1000.000288,0.000001,-0.000002,0.000992,0.000000,0.000000,-0.000032,-0.000109,-0.000072,0.000228,-0.000388,0.016964,0.000000,0.000000,0.000000,0.000028,0.000029,0.002499,9.115627,9.115627,9.115626,0.250199,0.250199,0.250191,1.000000,1.000000,0.000000,0.000000,0.000000,0.002475,0.002474,0.000201,1.000000,1.000000,1.000000
1768299698.465736,179.996597,-179.268458,178.701195,999.999956,1000.000080,1000.000289,0.000001,-0.000001,0.000993,0.000000,0.000000,-0.000039,-0.000109,-0.000072,0.000229,-0.000386,0.016981,0.000000,0.000000,0.000000,0.000028,0.000029,0.002499,9.117333,9.117333,9.117332,0.250201,0.250201,0.250193,1.000000,1.000000,0.000000,0.000000,0.000000,0.002475,0.002475,0.000199,1.000000,1.000000,1.000000
1768299698.470530,179.996611,-179.267929,178.699586,999.999976,1000.000023,1000.000291,0.000001,-0.000001,0.000994,0.000000,0.000000,-0.000044,-0.000107,-0.000071,0.000228,-0.000383,0.016993,0.000000,0.000000,0.000000,0.000028,0.000029,0.002499,9.119053,9.119053,9.119052,0.250202,0.250202,0.250194,1.000000,1.000000,0.000000,0.000000,0.000000,0.002475,0.002475,0.000198,1.000000,1.000000,1.000000
1768299698.477939,179.996669,-179.267405,178.699876,999.999996,1000.000034,1000.000292,0.000001,-0.000001,0.000995,0.000000,0.000000,-0.000044,-0.000106,-0.000071,0.000227,-0.000384,0.017010,0.000000,0.000000,0.000000,0.000028,0.000029,0.002499,9.120785,9.120785,9.120784,0.250204,0.250204,0.250196,1.000000,1.000000,0.000000,0.000000,0.000000,0.002475,0.002475,0.000197,1.000000,1.000000,1.000000
1768299698.480424,179.996725,-179.266889,178.700162,1000.000017,1000.000045,1000.000293,0.000001,-0.000001,0.000996,0.000000,0.000000,-0.000044,-0.000105,-0.000070,0.000226,-0.000385,0.017028,0.000000,0.000000,0.000000,0.000028,0.000029,0.002499,9.122529,9.122529,9.122528,0.250205,0.250205,0.250197,1.000000,1.000000,0.000000,0.000000,0.000000,0.002475,0.002475,0.000195,1.000000,1.000000,1.000000
1768299698.487702,179.996753,-179.266386,178.698316,1000.000037,999.999973,1000.000311,0.000001,-0.000001,0.000993,0.000000,0.000000,-0.000041,-0.000103,-0.000070,0.000224,-0.000380,0.016973,0.000000,0.000000,0.000000,0.000028,0.000029,0.002499,9.124286,9.124286,9.124285,0.250206,0.250206,0.250199,1.000000,1.000000,0.000000,0.000000,0.000000,0.002475,0.002475,0.000194,1.000000,1.000000,1.000000
1768299698.490876,179.996749,-179.266315,178.696920,1000.000040,999.999917,1000.000329,0.000001,-0.000001,0.000990,0.000000,0.000000,-0.000039,-0.000102,-0.000069,0.000224,-0.000376,0.016921,0.000000,0.000000,0.000000,0.000028,0.000029,0.002499,9.126055,9.126055,9.126054,0.250208,0.250208,0.250200,1.000000,1.000000,0.000000,0.000000,0.000000,0.002475,0.002475,0.000193,1.000000,1.000000,1.000000
1768299698.495859,179.996728,-179.266660,178.697222,1000.000026,999.999929,1000.000329,0.000001,-0.000001,0.000991,0.000000,0.000000,-0.000039,-0.000102,-0.000069,0.000224,-0.000377,0.016941,0.000000,0.000000,0.000000,0.000028,0.000029,0.002499,9.127837,9.127837,9.127836,0.250209,0.250209,0.250202,1.000000,1.000000,0.000000,0.000000,0.000000,0.002475,0.002475,0.000192,1.000000,1.000000,1.000000
1768299698.502907,179.996730,-179.266855,178.698779,1000.000015,999.999992,1000.000328,0.000001,-0.000001,0.000992,0.000000,0.000000,-0.000041,-0.000109,-0.000068,0.000225,-0.000381,0.016964,0.000000,0.000000,0.000000,0.000028,0.000029,0.002499,9.129632,9.129632,9.129631,0.250211,0.250211,0.250203,1.000000,1.000000,0.000000,0.000000,0.000000,0.002475,0.002475,0.000190,1.000000,1.000000,1.000000
1768299698.507871,179.996745,-179.266636,178.698510,1000.000021,999.999985,1000.000345,0.000001,-0.000001,0.000990,0.000000,0.000000,-0.000047,-0.000114,-0.000068,0.000224,-0.000380,0.016917,0.000000,0.000000,0.000000,0.000028,0.000029,0.002499,9.131439,9.131439,9.131437,0.250212,0.250212,0.250205,1.000000,1.000000,0.000000,0.000000,0.000000,0.002475,0.002475,0.000189,1.000000,1.000000,1.000000
1768299698.512627,179.996760,-179.266425,178.698253,1000.000026,999.999978,1000.000378,0.000001,-0.000001,0.000983,0.000000,0.000000,-0.000053,-0.000120,-0.000067,0.000222,-0.000377,0.016809,0.000000,0.000000,0.000000,0.000028,0.000029,0.002499,9.133258,9.133258,9.133257,0.250214,0.250214,0.250206,1.000000,1.000000,0.000000,0.000000,0.000000,0.002475,0.002475,0.000188,1.000000,1.000000,1.000000
1768299698.515369,179.996787,-179.266211,178.698815,1000.000031,1000.000006,1000.000395,0.000001,-0.000001,0.000981,0.000000,0.000000,-0.000060,-0.000126,-0.000067,0.000222,-0.000377,0.016768,0.000000,0.000000,0.000000,0.000028,0.000029,0.002499,9.135090,9.135090,9.135089,0.250215,0.250215,0.250208,1.000000,1.000000,0.000000,0.000000,0.000000,0.002475,0.002475,0.000187,1.000000,1.000000,1.000000
1768299698.520370,179.996813,-179.266146,178.700189,1000.000035,1000.000069,1000.000410,0.000001,-0.000001,0.000978,0.000000,0.000000,-0.000069,-0.000125,-0.000066,0.000221,-0.000379,0.016729,0.000000,0.000000,0.000000,0.000028,0.000029,0.002499,9.136934,9.136934,9.136933,0.250217,0.250217,0.250209,1.000000,1.000000,0.000000,0.000000,0.000000,0.002475,0.002475,0.000186,1.000000,1.000000,1.000000
1768299698.527954,179.996857,-179.265676,178.699510,1000.000055,1000.000043,1000.000427,0.000001,-0.000001,0.000976,0.000000,0.000000,-0.000074,-0.000124,-0.000066,0.000219,-0.000377,0.016683,0.000000,0.000000,0.000000,0.000028,0.000029,0.002499,9.138791,9.138791,9.138790,0.250218,0.250218,0.250210,1.000000,1.000000,0.000000,0.000000,0.000000,0.002475,0.002475,0.000185,1.000000,1.000000,1.000000
1768299698.530405,179.996900,-179.265211,178.698580,1000.000076,1000.000002,1000.000445,0.000001,-0.000001,0.000973,0.000000,0.000000,-0.000072,-0.000122,-0.000065,0.000218,-0.000374,0.016636,0.000000,0.000000,0.000000,0.000028,0.000029,0.002499,9.140661,9.140661,9.140660,0.250220,0.250220,0.250212,1.000000,1.000000,0.000000,0.000000,0.000000,0.002475,0.002475,0.000183,1.000000,1.000000,1.000000
1768299698.537713,179.996908,-179.265150,178.699264,1000.000080,1000.000032,1000.000444,0.000001,-0.000001,0.000974,0.000000,0.000000,-0.000073,-0.000121,-0.000065,0.000218,-0.000376,0.016657,0.000000,0.000000,0.000000,0.000028,0.000029,0.002499,9.142543,9.142543,9.142542,0.250221,0.250221,0.250213,1.000000,1.000000,0.000000,0.000000,0.000000,0.002475,0.002475,0.000182,1.000000,1.000000,1.000000
1768299698.540437,179.996918,-179.265088,178.700340,1000.000083,1000.000080,1000.000443,0.000001,-0.000001,0.000976,0.000000,0.000000,-0.000074,-0.000120,-0.000065,0.000218,-0.000379,0.016679,0.000000,0.000000,0.000000,0.000028,0.000029,0.002499,9.144437,9.144437,9.144436,0.250223,0.250223,0.250215,1.000000,1.000000,0.000000,0.000000,0.000000,0.002475,0.002475,0.000181,1.000000,1.000000,1.000000
1768299698.547728,179.996971,-179.264630,178.700208,1000.000104,1000.000074,1000.000443,0.000000,-0.000001,0.000977,0.000000,0.000000,-0.000073,-0.000119,-0.000064,0.000217,-0.000379,0.016695,0.000000,0.000000,0.000000,0.000028,0.000029,0.002499,9.146344,9.146344,9.146343,0.250224,0.250224,0.250216,1.000000,1.000000,0.000000,0.000000,0.000000,0.002475,0.002475,0.000180,1.000000,1.000000,1.000000
1768299698.552919,179.997024,-179.264183,178.699691,1000.000125,1000.000050,1000.000461,0.000000,-0.000001,0.000974,0.000000,0.000000,-0.000072,-0.000118,-0.000064,0.000216,-0.000377,0.016651,0.000000,0.000000,0.000000,0.000028,0.000029,0.002499,9.148264,9.148264,9.148262,0.250226,0.250226,0.250218,1.000000,1.000000,0.000000,0.000000,0.000000,0.002475,0.002475,0.000179,1.000000,1.000000,1.000000
1768299698.555404,179.997031,-179.264135,178.699573,1000.000128,1000.000044,1000.000478,0.000000,-0.000001,0.000972,0.000000,0.000000,-0.000071,-0.000117,-0.000063,0.000215,-0.000376,0.016609,0.000000,0.000000,0.000000,0.000028,0.000029,0.002499,9.150196,9.150196,9.150194,0.250227,0.250227,0.250219,1.000000,1.000000,0.000000,0.000000,0.000000,0.002476,0.002475,0.000178,1.000000,1.000000,1.000000
1768299698.562757,179.997031,-179.264088,178.700240,1000.000131,1000.000075,1000.000494,0.000000,-0.000001,0.000969,0.000000,0.000000,-0.000072,-0.000116,-0.000063,0.000214,-0.000376,0.016571,0.000000,0.000000,0.000000,0.000028,0.000029,0.002499,9.152140,9.152140,9.152139,0.250228,0.250228,0.250221,1.000000,1.000000,0.000000,0.000000,0.000000,0.002476,0.002475,0.000177,1.000000,1.000000,1.000000
1768299698.565634,179.997082,-179.263651,178.700120,1000.000152,1000.000069,1000.000512,0.000000,-0.000001,0.000967,0.000000,0.000000,-0.000071,-0.000115,-0.000062,0.000213,-0.000375,0.016529,0.000000,0.000000,0.000000,0.000028,0.000029,0.002499,9.154097,9.154097,9.154096,0.250230,0.250230,0.250222,1.000000,1.000000,0.000000,0.000000,0.000000,0.002476,0.002475,0.000176,1.000000,1.000000,1.000000
1768299698.570545,179.997154,-179.263221,178.698306,1000.000173,999.999986,1000.000531,0.000000,-0.000001,0.000964,0.000000,0.000000,-0.000074,-0.000113,-0.000062,0.000211,-0.000370,0.016483,0.000000,0.000000,0.000000,0.000028,0.000029,0.002499,9.156067,9.156067,9.156065,0.250231,0.250231,0.250224,1.000000,1.000000,0.000000,0.000000,0.000000,0.002476,0.002475,0.000175,1.000000,1.000000,1.000000
1768299698.578016,179.997102,-179.263799,178.698193,1000.000141,999.999980,1000.000529,0.000000,-0.000001,0.000965,0.000000,0.000000,-0.000074,-0.000120,-0.000062,0.000213,-0.000370,0.016503,0.000000,0.000000,0.000000,0.000028,0.000029,0.002499,9.158049,9.158049,9.158048,0.250233,0.250233,0.250225,1.000000,1.000000,0.000000,0.000000,0.000000,0.002476,0.002475,0.000174,1.000000,1.000000,1.000000
1768299698.580406,179.997042,-179.264370,178.698847,1000.000109,1000.000012,1000.000527,0.000000,-0.000001,0.000967,0.000000,0.000000,-0.000074,-0.000126,-0.000061,0.000214,-0.000372,0.016524,0.000000,0.000000,0.000000,0.000028,0.000029,0.002499,9.160043,9.160043,9.160042,0.250234,0.250234,0.250227,1.000000,1.000000,0.000000,0.000000,0.000000,0.002476,0.002475,0.000173,1.000000,1.000000,1.000000
1768299698.587681,179.996987,-179.264935,178.698351,1000.000077,999.999987,1000.000527,0.000000,-0.000001,0.000968,0.000000,0.000000,-0.000073,-0.000132,-0.000061,0.000216,-0.000372,0.016542,0.000000,0.000000,0.000000,0.000028,0.000029,0.002499,9.162051,9.162051,9.162049,0.250236,0.250236,0.250228,1.000000,1.000000,0.000000,0.000000,0.000000,0.002476,0.002475,0.000172,1.000000,1.000000,1.000000
1768299698.590407,179.996917,-179.265640,178.697481,1000.000042,999.999943,1000.000526,0.000001,-0.000001,0.000969,0.000000,0.000000,-0.000071,-0.000132,-0.000061,0.000218,-0.000370,0.016558,0.000000,0.000000,0.000000,0.000028,0.000029,0.002499,9.164070,9.164070,9.164069,0.250237,0.250237,0.250229,1.000000,1.000000,0.000000,0.000000,0.000000,0.002476,0.002475,0.000171,1.000000,1.000000,1.000000
1768299698.597720,179.996868,-179.266336,178.698130,1000.000007,999.999975,1000.000524,0.000001,-0.000001,0.000970,0.000000,0.000000,-0.000072,-0.000133,-0.000060,0.000220,-0.000372,0.016579,0.000000,0.000000,0.000000,0.000028,0.000029,0.002499,9.166102,9.166102,9.166101,0.250239,0.250239,0.250231,1.000000,1.000000,0.000000,0.000000,0.000000,0.002476,0.002475,0.000170,1.000000,1.000000,1.000000
1768299698.602956,179.996868,-179.266649,178.699521,999.999991,1000.000047,1000.000522,0.000001,-0.000001,0.000971,0.000000,0.000000,-0.000073,-0.000132,-0.000060,0.000221,-0.000375,0.016602,0.000000,0.000000,0.000000,0.000028,0.000029,0.002499,9.168147,9.168147,9.168145,0.250240,0.250240,0.250232,1.000000,1.000000,0.000000,0.000000,0.000000,0.002476,0.002475,0.000169,1.000000,1.000000,1.000000
1768299698.605373,179.996899,-179.266585,178.700523,999.999995,1000.000098,1000.000520,0.000001,-0.000001,0.000972,0.000000,0.000000,-0.000074,-0.000131,-0.000060,0.000221,-0.000378,0.016622,0.000000,0.000000,0.000000,0.000028,0.000029,0.002499,9.170204,9.170204,9.170202,0.250242,0.250242,0.250234,1.000000,1.000000,0.000000,0.000000,0.000000,0.002476,0.002475,0.000168,1.000000,1.000000,1.000000
1768299698.612628,179.996972,-179.265784,178.699665,1000.000038,1000.000053,1000.000539,0.000001,-0.000001,0.000970,0.000000,0.000000,-0.000073,-0.000129,-0.000059,0.000218,-0.000375,0.016579,0.000000,0.000000,0.000000,0.000028,0.000029,0.002499,9.172274,9.172274,9.172272,0.250243,0.250243,0.250235,1.000000,1.000000,0.000000,0.000000,0.000000,0.002476,0.002475,0.000167,1.000000,1.000000,1.000000
1768299698.615450,179.997050,-179.264992,178.699186,1000.000081,1000.000027,1000.000558,0.000000,-0.000001,0.000967,0.000000,0.000000,-0.000072,-0.000127,-0.000059,0.000216,-0.000373,0.016538,0.000000,0.000000,0.000000,0.000028,0.000029,0.002499,9.174356,9.174356,9.174354,0.250245,0.250245,0.250237,1.000000,1.000000,0.000000,0.000000,0.000000,0.002476,0.002475,0.000166,1.000000,1.000000,1.000000
1768299698.620461,179.997131,-179.264205,178.699808,1000.000124,1000.000060,1000.000557,0.000000,-0.000001,0.000968,0.000000,0.000000,-0.000072,-0.000125,-0.000058,0.000214,-0.000375,0.016556,0.000000,0.000000,0.000000,0.000028,0.000029,0.002499,9.176450,9.176450,9.176449,0.250246,0.250246,0.250238,1.000000,1.000000,0.000000,0.000000,0.000000,0.002476,0.002475,0.000165,1.000000,1.000000,1.000000
1768299698.627927,179.997216,-179.263421,178.699683,1000.000167,1000.000053,1000.000537,0.000000,-0.000001,0.000972,0.000000,0.000000,-0.000071,-0.000124,-0.000058,0.000214,-0.000376,0.016626,0.000000,0.000000,0.000000,0.000028,0.000029,0.002499,9.178557,9.178557,9.178556,0.250248,0.250248,0.250240,1.000000,1.000000,0.000000,0.000000,0.000000,0.002476,0.002475,0.000164,1.000000,1.000000,1.000000
1768299698.630415,179.997304,-179.262646,178.699196,1000.000211,1000.000026,1000.000518,0.000000,-0.000001,0.000976,0.000000,0.000000,-0.000070,-0.000122,-0.000058,0.000213,-0.000377,0.016693,0.000000,0.000000,0.000000,0.000028,0.000029,0.002499,9.180677,9.180677,9.180676,0.250249,0.250249,0.250241,1.000000,1.000000,0.000000,0.000000,0.000000,0.002476,0.002475,0.000164,1.000000,1.000000,1.000000
1768299698.637758,179.997348,-179.262242,178.699076,1000.000234,1000.000019,1000.000498,0.000000,-0.000001,0.000980,0.000000,0.000000,-0.000070,-0.000120,-0.000057,0.000213,-0.000378,0.016762,0.000000,0.000000,0.000000,0.000028,0.000029,0.002499,9.182809,9.182809,9.182808,0.250250,0.250250,0.250243,1.000000,1.000000,0.000000,0.000000,0.000000,0.002476,0.002475,0.000163,1.000000,1.000000,1.000000
1768299698.640476,179.997382,-179.261700,178.699686,1000.000259,1000.000052,1000.000497,0.000000,-0.000001,0.000981,0.000000,0.000000,-0.000070,-0.000125,-0.000057,0.000212,-0.000379,0.016779,0.000000,0.000000,0.000000,0.000028,0.000029,0.002499,9.184954,9.184954,9.184952,0.250252,0.250252,0.250244,1.000000,1.000000,0.000000,0.000000,0.000000,0.002476,0.002475,0.000162,1.000000,1.000000,1.000000
1768299698.647706,179.997415,-179.261169,178.700297,1000.000285,1000.000087,1000.000515,0.000000,-0.000001,0.000979,0.000000,0.000000,-0.000071,-0.000129,-0.000057,0.000210,-0.000380,0.016742,0.000000,0.000000,0.000000,0.000028,0.000029,0.002499,9.187111,9.187111,9.187110,0.250253,0.250253,0.250246,1.000000,1.000000,0.000000,0.000000,0.000000,0.002476,0.002475,0.000161,1.000000,1.000000,1.000000
1768299698.652974,179.997448,-179.261001,178.699831,1000.000290,1000.000060,1000.000535,-0.000000,-0.000001,0.000977,0.000000,0.000000,-0.000070,-0.000134,-0.000056,0.000209,-0.000378,0.016703,0.000000,0.000000,0.000000,0.000028,0.000029,0.002499,9.189281,9.189281,9.189279,0.250255,0.250255,0.250247,1.000000,1.000000,0.000000,0.000000,0.000000,0.002476,0.002475,0.000160,1.000000,1.000000,1.000000
1768299698.655431,179.997480,-179.260835,178.699369,1000.000294,1000.000033,1000.000554,-0.000000,-0.000001,0.000975,0.000000,0.000000,-0.000068,-0.000139,-0.000056,0.000208,-0.000376,0.016664,0.000000,0.000000,0.000000,0.000028,0.000029,0.002499,9.191463,9.191463,9.191461,0.250256,0.250256,0.250248,1.000000,1.000000,0.000000,0.000000,0.000000,0.002476,0.002475,0.000159,1.000000,1.000000,1.000000
1768299698.662770,179.997381,-179.261525,178.700327,1000.000255,1000.000088,1000.000571,0.000000,-0.000001,0.000973,0.000000,0.000000,-0.000070,-0.000139,-0.000056,0.000209,-0.000378,0.016632,0.000000,0.000000,0.000000,0.000028,0.000029,0.002499,9.193658,9.193658,9.193656,0.250258,0.250258,0.250250,1.000000,1.000000,0.000000,0.000000,0.000000,0.002476,0.002475,0.000158,1.000000,1.000000,1.000000
1768299698.666099,179.997284,-179.262203,178.701267,1000.000216,1000.000143,1000.000568,0.000000,-0.000001,0.000974,0.000000,0.000000,-0.000071,-0.000139,-0.000055,0.000211,-0.000381,0.016652,0.000000,0.000000,0.000000,0.000028,0.000029,0.002499,9.195865,9.195865,9.195863,0.250259,0.250259,0.250251,1.000000,1.000000,0.000000,0.000000,0.000000,0.002476,0.002475,0.000158,1.000000,1.000000,1.000000
1768299698.670951,179.997256,-179.262524,178.700796,1000.000197,1000.000115,1000.000567,0.000000,-0.000001,0.000975,0.000000,0.000000,-0.000069,-0.000139,-0.000055,0.000212,-0.000380,0.016667,0.000000,0.000000,0.000000,0.000028,0.000029,0.002499,9.198085,9.198085,9.198083,0.250261,0.250261,0.250253,1.000000,1.000000,0.000000,0.000000,0.000000,0.002476,0.002475,0.000157,1.000000,1.000000,1.000000
1768299698.677924,179.997228,-179.262841,178.700330,1000.000179,1000.000086,1000.000567,0.000000,-0.000001,0.000976,0.000000,0.000000,-0.000068,-0.000139,-0.000055,0.000213,-0.000379,0.016682,0.000000,0.000000,0.000000,0.000028,0.000029,0.002499,9.200317,9.200317,9.200315,0.250262,0.250262,0.250254,1.000000,1.000000,0.000000,0.000000,0.000000,0.002476,0.002475,0.000156,1.000000,1.000000,1.000000
1768299698.680434,179.997197,-179.263154,178.700216,1000.000161,1000.000079,1000.000565,0.000000,-0.000001,0.000977,0.000000,0.000000,-0.000068,-0.000138,-0.000055,0.000214,-0.000379,0.016697,0.000000,0.000000,0.000000,0.000028,0.000029,0.002499,9.202562,9.202562,9.202560,0.250264,0.250264,0.250256,1.000000,1.000000,0.000000,0.000000,0.000000,0.002476,0.002475,0.000155,1.000000,1.000000,1.000000
1768299698.687697,179.997199,-179.263119,178.700448,1000.000164,1000.000093,1000.000564,0.000000,-0.000001,0.000978,0.000000,0.000000,-0.000068,-0.000137,-0.000054,0.000214,-0.000380,0.016713,0.000000,0.000000,0.000000,0.000028,0.000029,0.002499,9.204819,9.204819,9.204817,0.250265,0.250265,0.250257,1.000000,1.000000,0.000000,0.000000,0.000000,0.002476,0.002475,0.000154,1.000000,1.000000,1.000000
1768299698.690433,179.997205,-179.263084,178.700335,1000.000167,1000.000085,1000.000563,0.000000,-0.000001,0.000978,0.000000,0.000000,-0.000067,-0.000137,-0.000054,0.000214,-0.000380,0.016728,0.000000,0.000000,0.000000,0.000028,0.000029,0.002499,9.207089,9.207089,9.207087,0.250267,0.250267,0.250259,1.000000,1.000000,0.000000,0.000000,0.000000,0.002476,0.002475,0.000154,1.000000,1.000000,1.000000
1768299698.695369,179.997250,-179.262712,178.699886,1000.000191,1000.000057,1000.000583,0.000000,-0.000001,0.000976,0.000000,0.000000,-0.000066,-0.000135,-0.000054,0.000213,-0.000378,0.016690,0.000000,0.000000,0.000000,0.000028,0.000029,0.002499,9.209371,9.209371,9.209369,0.250268,0.250268,0.250260,1.000000,1.000000,0.000000,0.000000,0.000000,0.002476,0.002475,0.000153,1.000000,1.000000,1.000000
1768299698.703017,179.997274,-179.262338,178.700800,1000.000215,1000.000114,1000.000581,0.000000,-0.000001,0.000977,0.000000,0.000000,-0.000067,-0.000134,-0.000053,0.000212,-0.000381,0.016707,0.000000,0.000000,0.000000,0.000028,0.000029,0.002499,9.211666,9.211666,9.211664,0.250270,0.250270,0.250262,1.000000,1.000000,0.000000,0.000000,0.000000,0.002476,0.002475,0.000152,1.000000,1.000000,1.000000
1768299698.705403,179.997290,-179.261968,178.702044,1000.000240,1000.000193,1000.000578,0.000000,-0.000002,0.000978,0.000000,0.000000,-0.000069,-0.000133,-0.000053,0.000212,-0.000384,0.016725,0.000000,0.000000,0.000000,0.000028,0.000029,0.002499,9.213974,9.213974,9.213972,0.250271,0.250271,0.250263,1.000000,1.000000,0.000000,0.000000,0.000000,0.002476,0.002475,0.000151,1.000000,1.000000,1.000000
1768299698.715560,179.997358,-179.261602,178.701247,1000.000264,1000.000141,1000.000578,0.000000,-0.000001,0.000979,0.000000,0.000000,-0.000067,-0.000131,-0.000053,0.000211,-0.000382,0.016737,0.000000,0.000000,0.000000,0.000028,0.000029,0.002499,9.216293,9.216293,9.216291,0.250272,0.250272,0.250265,1.000000,1.000000,0.000000,0.000000,0.000000,0.002476,0.002475,0.000151,1.000000,1.000000,1.000000
1768299698.715579,179.997425,-179.261240,178.700458,1000.000289,1000.000090,1000.000578,0.000000,-0.000001,0.000980,0.000000,0.000000,-0.000066,-0.000130,-0.000053,0.000210,-0.000381,0.016748,0.000000,0.000000,0.000000,0.000028,0.000029,0.002499,9.218626,9.218626,9.218624,0.250274,0.250274,0.250266,1.000000,1.000000,0.000000,0.000000,0.000000,0.002476,0.002475,0.000150,1.000000,1.000000,1.000000
1768299698.720432,179.997433,-179.261212,178.700340,1000.000291,1000.000081,1000.000556,0.000000,-0.000001,0.000983,0.000000,0.000000,-0.000065,-0.000129,-0.000052,0.000211,-0.000382,0.016811,0.000000,0.000000,0.000000,0.000028,0.000029,0.002499,9.220971,9.220971,9.220969,0.250275,0.250275,0.250267,1.000000,1.000000,0.000000,0.000000,0.000000,0.002476,0.002475,0.000149,1.000000,1.000000,1.000000
1768299698.728010,179.997405,-179.261184,178.701224,1000.000294,1000.000140,1000.000531,0.000000,-0.000001,0.000987,0.000000,0.000000,-0.000066,-0.000128,-0.000052,0.000212,-0.000385,0.016877,0.000000,0.000000,0.000000,0.000028,0.000029,0.002499,9.223328,9.223328,9.223326,0.250277,0.250277,0.250269,1.000000,1.000000,0.000000,0.000000,0.000000,0.002476,0.002475,0.000148,1.000000,1.000000,1.000000
1768299698.730407,179.997400,-179.261157,178.701288,1000.000297,1000.000150,1000.000508,0.000000,-0.000001,0.000991,0.000000,0.000000,-0.000071,-0.000128,-0.000052,0.000213,-0.000386,0.016941,0.000000,0.000000,0.000000,0.000028,0.000029,0.002499,9.225698,9.225698,9.225696,0.250278,0.250278,0.250270,1.000000,1.000000,0.000000,0.000000,0.000000,0.002476,0.002475,0.000148,1.000000,1.000000,1.000000
1768299698.737735,179.997369,-179.261465,178.701174,1000.000277,1000.000142,1000.000507,0.000000,-0.000001,0.000992,0.000000,0.000000,-0.000071,-0.000128,-0.000051,0.000213,-0.000386,0.016954,0.000000,0.000000,0.000000,0.000028,0.000029,0.002499,9.228080,9.228080,9.228078,0.250280,0.250280,0.250272,1.000000,1.000000,0.000000,0.000000,0.000000,0.002476,0.002475,0.000147,1.000000,1.000000,1.000000
1768299698.740464,179.997327,-179.261770,178.701392,1000.000257,1000.000156,1000.000506,0.000000,-0.000001,0.000992,0.000000,0.000000,-0.000071,-0.000127,-0.000051,0.000214,-0.000387,0.016968,0.000000,0.000000,0.000000,0.000028,0.000029,0.002499,9.230475,9.230475,9.230473,0.250281,0.250281,0.250273,1.000000,1.000000,0.000000,0.000000,0.000000,0.002476,0.002475,0.000146,1.000000,1.000000,1.000000
1768299698.747715,179.997257,-179.262068,178.702585,1000.000237,1000.000237,1000.000481,0.000000,-0.000002,0.000996,0.000000,0.000000,-0.000072,-0.000127,-0.000051,0.000216,-0.000392,0.017034,0.000000,0.000000,0.000000,0.000028,0.000029,0.002499,9.232883,9.232883,9.232881,0.250283,0.250283,0.250275,1.000000,1.000000,0.000000,0.000000,0.000000,0.002476,0.002475,0.000145,1.000000,1.000000,1.000000
1768299698.752905,179.997265,-179.262040,178.702466,1000.000240,1000.000229,1000.000480,0.000000,-0.000002,0.000997,0.000000,0.000000,-0.000072,-0.000127,-0.000051,0.000216,-0.000391,0.017046,0.000000,0.000000,0.000000,0.000028,0.000029,0.002499,9.235303,9.235303,9.235300,0.250284,0.250284,0.250276,1.000000,1.000000,0.000000,0.000000,0.000000,0.002476,0.002475,0.000145,1.000000,1.000000,1.000000
1768299698.755426,179.997291,-179.262017,178.701703,1000.000242,1000.000175,1000.000503,0.000000,-0.000001,0.000995,0.000000,0.000000,-0.000070,-0.000126,-0.000050,0.000216,-0.000389,0.017008,0.000000,0.000000,0.000000,0.000028,0.000029,0.002499,9.237735,9.237735,9.237733,0.250286,0.250286,0.250278,1.000000,1.000000,0.000000,0.000000,0.000000,0.002476,0.002475,0.000144,1.000000,1.000000,1.000000
1768299698.762712,179.997250,-179.262315,178.701914,1000.000222,1000.000189,1000.000501,0.000000,-0.000001,0.000995,0.000000,0.000000,-0.000070,-0.000126,-0.000050,0.000216,-0.000390,0.017022,0.000000,0.000000,0.000000,0.000028,0.000029,0.002499,9.240180,9.240180,9.240178,0.250287,0.250287,0.250279,1.000000,1.000000,0.000000,0.000000,0.000000,0.002476,0.002475,0.000143,1.000000,1.000000,1.000000
1768299698.765679,179.997202,-179.262605,178.702439,1000.000202,1000.000226,1000.000476,0.000000,-0.000002,0.000999,0.000000,0.000000,-0.000070,-0.000125,-0.000050,0.000218,-0.000392,0.017084,0.000000,0.000000,0.000000,0.000028,0.000029,0.002499,9.242638,9.242638,9.242635,0.250289,0.250289,0.250281,1.000000,1.000000,0.000000,0.000000,0.000000,0.002476,0.002475,0.000143,1.000000,1.000000,1.000000
1768299698.770543,179.997203,-179.262574,178.702644,1000.000205,1000.000240,1000.000475,0.000000,-0.000002,0.001000,0.000000,0.000000,-0.000070,-0.000125,-0.000050,0.000218,-0.000393,0.017097,0.000000,0.000000,0.000000,0.000028,0.000029,0.002499,9.245108,9.245108,9.245105,0.250290,0.250290,0.250282,1.000000,1.000000,0.000000,0.000000,0.000000,0.002476,0.002475,0.000142,1.000000,1.000000,1.000000
1768299698.777989,179.997232,-179.262549,178.701572,1000.000208,1000.000162,1000.000499,0.000000,-0.000001,0.000998,0.000000,0.000000,-0.000068,-0.000124,-0.000049,0.000217,-0.000390,0.017059,0.000000,0.000000,0.000000,0.000028,0.000029,0.002499,9.247590,9.247590,9.247588,0.250292,0.250292,0.250284,1.000000,1.000000,0.000000,0.000000,0.000000,0.002476,0.002475,0.000141,1.000000,1.000000,1.000000
1768299698.780452,179.997255,-179.262520,178.700822,1000.000211,1000.000107,1000.000499,0.000000,-0.000001,0.000998,0.000000,0.000000,-0.000067,-0.000123,-0.000049,0.000218,-0.000388,0.017068,0.000000,0.000000,0.000000,0.000028,0.000029,0.002499,9.250085,9.250085,9.250083,0.250293,0.250293,0.250285,1.000000,1.000000,0.000000,0.000000,0.000000,0.002476,0.002475,0.000141,1.000000,1.000000,1.000000
1768299698.787726,179.997246,-179.262486,178.701345,1000.000214,1000.000145,1000.000474,0.000000,-0.000001,0.001002,0.000000,0.000000,-0.000067,-0.000123,-0.000049,0.000218,-0.000390,0.017128,0.000000,0.000000,0.000000,0.000028,0.000029,0.002499,9.252593,9.252593,9.252590,0.250294,0.250294,0.250286,1.000000,1.000000,0.000000,0.000000,0.000000,0.002476,0.002475,0.000140,1.000000,1.000000,1.000000
1768299698.790418,179.997281,-179.262136,178.701546,1000.000241,1000.000159,1000.000450,0.000000,-0.000001,0.001005,0.000000,0.000000,-0.000067,-0.000122,-0.000049,0.000218,-0.000392,0.017186,0.000000,0.000000,0.000000,0.000028,0.000029,0.002499,9.255113,9.255113,9.255110,0.250296,0.250296,0.250288,1.000000,1.000000,0.000000,0.000000,0.000000,0.002476,0.002475,0.000139,1.000000,1.000000,1.000000
1768299698.795377,179.997344,-179.261793,178.700805,1000.000268,1000.000103,1000.000451,0.000000,-0.000001,0.001006,0.000000,0.000000,-0.000066,-0.000120,-0.000048,0.000217,-0.000390,0.017195,0.000000,0.000000,0.000000,0.000028,0.000029,0.002499,9.257645,9.257645,9.257643,0.250297,0.250297,0.250289,1.000000,1.000000,0.000000,0.000000,0.000000,0.002476,0.002475,0.000139,1.000000,1.000000,1.000000
1768299698.803020,179.997340,-179.261768,178.701014,1000.000271,1000.000119,1000.000450,0.000000,-0.000001,0.001006,0.000000,0.000000,-0.000066,-0.000120,-0.000048,0.000218,-0.000391,0.017207,0.000000,0.000000,0.000000,0.000028,0.000029,0.002499,9.260190,9.260190,9.260188,0.250299,0.250299,0.250291,1.000000,1.000000,0.000000,0.000000,0.000000,0.002476,0.002475,0.000138,1.000000,1.000000,1.000000
1768299698.805379,179.997280,-179.262056,178.701848,1000.000249,1000.000182,1000.000448,0.000000,-0.000001,0.001007,0.000000,0.000000,-0.000067,-0.000120,-0.000048,0.000218,-0.000394,0.017221,0.000000,0.000000,0.000000,0.000028,0.000029,0.002499,9.262748,9.262748,9.262745,0.250300,0.250300,0.250292,1.000000,1.000000,0.000000,0.000000,0.000000,0.002476,0.002475,0.000138,1.000000,1.000000,1.000000
1768299698.812630,179.997241,-179.262342,178.702050,1000.000228,1000.000197,1000.000446,0.000000,-0.000002,0.001008,0.000000,0.000000,-0.000067,-0.000119,-0.000048,0.000219,-0.000394,0.017233,0.000000,0.000000,0.000000,0.000028,0.000029,0.002499,9.265318,9.265318,9.265316,0.250302,0.250302,0.250294,1.000000,1.000000,0.000000,0.000000,0.000000,0.002476,0.002475,0.000137,1.000000,1.000000,1.000000
1768299698.815384,179.997220,-179.262625,178.701628,1000.000207,1000.000163,1000.000446,0.000000,-0.000001,0.001008,0.000000,0.000000,-0.000066,-0.000119,-0.000048,0.000220,-0.000393,0.017243,0.000000,0.000000,0.000000,0.000028,0.000029,0.002499,9.267901,9.267901,9.267898,0.250303,0.250303,0.250295,1.000000,1.000000,0.000000,0.000000,0.000000,0.002476,0.002475,0.000136,1.000000,1.000000,1.000000
1768299698.820379,179.997200,-179.262909,178.701217,1000.000186,1000.000131,1000.000469,0.000000,-0.000001,0.001006,0.000000,0.000000,-0.000065,-0.000119,-0.000047,0.000220,-0.000392,0.017208,0.000000,0.000000,0.000000,0.000028,0.000029,0.002499,9.270496,9.270496,9.270493,0.250305,0.250305,0.250297,1.000000,1.000000,0.000000,0.000000,0.000000,0.002476,0.002475,0.000136,1.000000,1.000000,1.000000
1768299698.827994,179.997152,-179.263183,178.702030,1000.000165,1000.000194,1000.000443,0.000000,-0.000002,0.001010,0.000000,0.000000,-0.000066,-0.000119,-0.000047,0.000222,-0.000395,0.017267,0.000000,0.000000,0.000000,0.000028,0.000029,0.002499,9.273104,9.273104,9.273101,0.250306,0.250306,0.250298,1.000000,1.000000,0.000000,0.000000,0.000000,0.002476,0.002475,0.000135,1.000000,1.000000,1.000000
1768299698.830416,179.997148,-179.263147,178.702529,1000.000169,1000.000234,1000.000417,0.000000,-0.000002,0.001013,0.000000,0.000000,-0.000066,-0.000119,-0.000047,0.000222,-0.000397,0.017324,0.000000,0.000000,0.000000,0.000028,0.000029,0.002499,9.275724,9.275724,9.275721,0.250308,0.250308,0.250300,1.000000,1.000000,0.000000,0.000000,0.000000,0.002476,0.002475,0.000135,1.000000,1.000000,1.000000
1768299698.837801,179.997212,-179.262809,178.701499,1000.000197,1000.000150,1000.000419,0.000000,-0.000001,0.001013,0.000000,0.000000,-0.000064,-0.000117,-0.000047,0.000222,-0.000395,0.017330,0.000000,0.000000,0.000000,0.000028,0.000029,0.002499,9.278356,9.278356,9.278354,0.250309,0.250309,0.250301,1.000000,1.000000,0.000000,0.000000,0.000000,0.002476,0.002475,0.000134,1.000000,1.000000,1.000000
1768299698.840482,179.997234,-179.262780,178.700782,1000.000200,1000.000092,1000.000419,0.000000,-0.000001,0.001014,0.000000,0.000000,-0.000063,-0.000117,-0.000046,0.000222,-0.000393,0.017338,0.000000,0.000000,0.000000,0.000028,0.000029,0.002499,9.281002,9.281002,9.280999,0.250311,0.250311,0.250303,1.000000,1.000000,0.000000,0.000000,0.000000,0.002476,0.002475,0.000133,1.000000,1.000000,1.000000
1768299698.847754,179.997217,-179.262746,178.701587,1000.000204,1000.000157,1000.000393,0.000000,-0.000001,0.001017,0.000000,0.000000,-0.000064,-0.000116,-0.000046,0.000222,-0.000396,0.017395,0.000000,0.000000,0.000000,0.000028,0.000029,0.002499,9.283659,9.283659,9.283656,0.250312,0.250312,0.250304,1.000000,1.000000,0.000000,0.000000,0.000000,0.002476,0.002475,0.000133,1.000000,1.000000,1.000000
1768299698.852996,179.997216,-179.262716,178.701784,1000.000207,1000.000173,1000.000392,0.000000,-0.000001,0.001018,0.000000,0.000000,-0.000064,-0.000116,-0.000046,0.000222,-0.000397,0.017405,0.000000,0.000000,0.000000,0.000028,0.000029,0.002499,9.286330,9.286330,9.286327,0.250313,0.250313,0.250306,1.000000,1.000000,0.000000,0.000000,0.000000,0.002476,0.002475,0.000132,1.000000,1.000000,1.000000
1768299698.855412,179.997231,-179.262687,178.701376,1000.000211,1000.000138,1000.000392,0.000000,-0.000001,0.001018,0.000000,0.000000,-0.000063,-0.000115,-0.000046,0.000222,-0.000396,0.017414,0.000000,0.000000,0.000000,0.000028,0.000029,0.002499,9.289012,9.289012,9.289009,0.250315,0.250315,0.250307,1.000000,1.000000,0.000000,0.000000,0.000000,0.002476,0.002475,0.000132,1.000000,1.000000,1.000000
1768299698.862714,179.997214,-179.262960,178.700822,1000.000189,1000.000100,1000.000392,0.000000,-0.000001,0.001019,0.000000,0.000000,-0.000066,-0.000115,-0.000046,0.000223,-0.000395,0.017423,0.000000,0.000000,0.000000,0.000028,0.000029,0.002499,9.291708,9.291708,9.291705,0.250316,0.250316,0.250308,1.000000,1.000000,0.000000,0.000000,0.000000,0.002476,0.002475,0.000131,1.000000,1.000000,1.000000
1768299698.865734,179.997203,-179.263081,178.700573,1000.000172,1000.000086,1000.000392,0.000000,-0.000001,0.001019,0.000000,0.000000,-0.000070,-0.000119,-0.000045,0.000224,-0.000395,0.017433,0.000000,0.000000,0.000000,0.000028,0.000029,0.002499,9.294415,9.294415,9.294412,0.250318,0.250318,0.250310,1.000000,1.000000,0.000000,0.000000,0.000000,0.002476,0.002475,0.000131,1.000000,1.000000,1.000000
1768299698.870552,179.997179,-179.263201,178.700925,1000.000154,1000.000123,1000.000390,0.000000,-0.000001,0.001020,0.000000,0.000000,-0.000075,-0.000124,-0.000045,0.000224,-0.000396,0.017444,0.000000,0.000000,0.000000,0.000028,0.000029,0.002499,9.297136,9.297136,9.297132,0.250319,0.250319,0.250311,1.000000,1.000000,0.000000,0.000000,0.000000,0.002476,0.002475,0.000130,1.000000,1.000000,1.000000
1768299698.878008,179.997212,-179.263023,178.699933,1000.000162,1000.000038,1000.000392,0.000000,-0.000001,0.001020,0.000000,0.000000,-0.000073,-0.000127,-0.000045,0.000224,-0.000393,0.017451,0.000000,0.000000,0.000000,0.000028,0.000029,0.002499,9.299868,9.299868,9.299865,0.250321,0.250321,0.250313,1.000000,1.000000,0.000000,0.000000,0.000000,0.002476,0.002475,0.000129,1.000000,1.000000,1.000000
1768299698.880409,179.997243,-179.262850,178.698955,1000.000170,999.999954,1000.000418,0.000000,-0.000001,0.001018,0.000000,0.000000,-0.000071,-0.000131,-0.000045,0.000223,-0.000390,0.017414,0.000000,0.000000,0.000000,0.000028,0.000029,0.002499,9.302614,9.302614,9.302610,0.250322,0.250322,0.250314,1.000000,1.000000,0.000000,0.000000,0.000000,0.002476,0.002475,0.000129,1.000000,1.000000,1.000000
1768299698.887737,179.997210,-179.263119,178.699754,1000.000148,1000.000022,1000.000416,0.000000,-0.000001,0.001019,0.000000,0.000000,-0.000072,-0.000131,-0.000045,0.000224,-0.000392,0.017427,0.000000,0.000000,0.000000,0.000028,0.000029,0.002499,9.305371,9.305371,9.305368,0.250324,0.250324,0.250316,1.000000,1.000000,0.000000,0.000000,0.000000,0.002476,0.002475,0.000128,1.000000,1.000000,1.000000
1768299698.890877,179.997174,-179.263386,178.700842,1000.000126,1000.000117,1000.000413,0.000000,-0.000001,0.001020,0.000000,0.000000,-0.000074,-0.000131,-0.000044,0.000225,-0.000396,0.017440,0.000000,0.000000,0.000000,0.000028,0.000029,0.002499,9.308142,9.308142,9.308139,0.250325,0.250325,0.250317,1.000000,1.000000,0.000000,0.000000,0.000000,0.002476,0.002475,0.000128,1.000000,1.000000,1.000000
1768299698.895863,179.997145,-179.263651,178.701039,1000.000104,1000.000133,1000.000412,0.000000,-0.000001,0.001020,0.000000,0.000000,-0.000074,-0.000131,-0.000044,0.000226,-0.000396,0.017450,0.000000,0.000000,0.000000,0.000028,0.000029,0.002499,9.310925,9.310925,9.310921,0.250327,0.250327,0.250319,1.000000,1.000000,0.000000,0.000000,0.000000,0.002476,0.002475,0.000127,1.000000,1.000000,1.000000
1768299698.902973,179.997116,-179.263917,178.700948,1000.000081,1000.000125,1000.000437,0.000000,-0.000001,0.001019,0.000000,0.000000,-0.000073,-0.000131,-0.000044,0.000226,-0.000395,0.017418,0.000000,0.000000,0.000000,0.000028,0.000029,0.002499,9.313720,9.313720,9.313717,0.250328,0.250328,0.250320,1.000000,1.000000,0.000000,0.000000,0.000000,0.002476,0.002475,0.000127,1.000000,1.000000,1.000000
1768299698.905373,179.997088,-179.264178,178.701435,1000.000059,1000.000167,1000.000435,0.000000,-0.000001,0.001019,0.000000,0.000000,-0.000074,-0.000131,-0.000044,0.000227,-0.000397,0.017429,0.000000,0.000000,0.000000,0.000028,0.000029,0.002499,9.316528,9.316528,9.316525,0.250330,0.250330,0.250322,1.000000,1.000000,0.000000,0.000000,0.000000,0.002476,0.002475,0.000126,1.000000,1.000000,1.000000
1768299698.912699,179.997094,-179.264141,178.701912,1000.000064,1000.000210,1000.000407,0.000000,-0.000001,0.001022,0.000000,0.000000,-0.000074,-0.000130,-0.000044,0.000227,-0.000399,0.017482,0.000000,0.000000,0.000000,0.000028,0.000029,0.002499,9.319348,9.319348,9.319345,0.250331,0.250331,0.250323,1.000000,1.000000,0.000000,0.000000,0.000000,0.002476,0.002475,0.000126,1.000000,1.000000,1.000000
1768299698.915483,179.997134,-179.263819,178.701812,1000.000094,1000.000200,1000.000407,0.000000,-0.000001,0.001023,0.000000,0.000000,-0.000074,-0.000129,-0.000043,0.000227,-0.000399,0.017490,0.000000,0.000000,0.000000,0.000028,0.000029,0.002499,9.322181,9.322181,9.322178,0.250333,0.250333,0.250325,1.000000,1.000000,0.000000,0.000000,0.000000,0.002476,0.002475,0.000125,1.000000,1.000000,1.000000
1768299698.920421,179.997176,-179.263499,178.700844,1000.000124,1000.000111,1000.000409,0.000000,-0.000001,0.001023,0.000000,0.000000,-0.000072,-0.000128,-0.000043,0.000226,-0.000397,0.017495,0.000000,0.000000,0.000000,0.000028,0.000029,0.002499,9.325027,9.325027,9.325023,0.250334,0.250334,0.250326,1.000000,1.000000,0.000000,0.000000,0.000000,0.002476,0.002475,0.000125,1.000000,1.000000,1.000000
1768299698.927969,179.997178,-179.263470,178.701037,1000.000128,1000.000128,1000.000408,0.000000,-0.000001,0.001024,0.000000,0.000000,-0.000072,-0.000127,-0.000043,0.000226,-0.000397,0.017504,0.000000,0.000000,0.000000,0.000028,0.000029,0.002499,9.327885,9.327885,9.327881,0.250335,0.250335,0.250327,1.000000,1.000000,0.000000,0.000000,0.000000,0.002476,0.002475,0.000124,1.000000,1.000000,1.000000
1768299698.930458,179.997174,-179.263441,178.701804,1000.000132,1000.000198,1000.000406,0.000000,-0.000001,0.001024,0.000000,0.000000,-0.000073,-0.000126,-0.000043,0.000226,-0.000400,0.017516,0.000000,0.000000,0.000000,0.000028,0.000029,0.002499,9.330755,9.330755,9.330751,0.250337,0.250337,0.250329,1.000000,1.000000,0.000000,0.000000,0.000000,0.002476,0.002475,0.000124,1.000000,1.000000,1.000000
1768299698.937818,179.997218,-179.263130,178.701138,1000.000162,1000.000136,1000.000433,0.000000,-0.000001,0.001022,0.000000,0.000000,-0.000071,-0.000125,-0.000043,0.000225,-0.000397,0.017481,0.000000,0.000000,0.000000,0.000028,0.000029,0.002499,9.333638,9.333638,9.333634,0.250338,0.250338,0.250330,1.000000,1.000000,0.000000,0.000000,0.000000,0.002476,0.002475,0.000123,1.000000,1.000000,1.000000
1768299698.940442,179.997267,-179.262821,178.700191,1000.000192,1000.000046,1000.000462,0.000000,-0.000001,0.001020,0.000000,0.000000,-0.000069,-0.000124,-0.000042,0.000223,-0.000394,0.017446,0.000000,0.000000,0.000000,0.000028,0.000029,0.002499,9.336533,9.336533,9.336530,0.250340,0.250340,0.250332,1.000000,1.000000,0.000000,0.000000,0.000000,0.002476,0.002475,0.000123,1.000000,1.000000,1.000000
1768299698.947737,179.997233,-179.263084,178.700676,1000.000168,1000.000092,1000.000487,0.000000,-0.000001,0.001018,0.000000,0.000000,-0.000070,-0.000124,-0.000042,0.000224,-0.000395,0.017416,0.000000,0.000000,0.000000,0.000028,0.000029,0.002499,9.339441,9.339441,9.339438,0.250341,0.250341,0.250333,1.000000,1.000000,0.000000,0.000000,0.000000,0.002476,0.002475,0.000122,1.000000,1.000000,1.000000
1768299698.952906,179.997223,-179.263057,178.701435,1000.000172,1000.000163,1000.000484,0.000000,-0.000001,0.001019,0.000000,0.000000,-0.000071,-0.000123,-0.000042,0.000224,-0.000397,0.017428,0.000000,0.000000,0.000000,0.000028,0.000029,0.002499,9.342362,9.342362,9.342358,0.250343,0.250343,0.250335,1.000000,1.000000,0.000000,0.000000,0.000000,0.002476,0.002475,0.000122,1.000000,1.000000,1.000000
1768299698.955408,179.997223,-179.263030,178.701621,1000.000175,1000.000180,1000.000483,0.000000,-0.000001,0.001020,0.000000,0.000000,-0.000071,-0.000123,-0.000042,0.000224,-0.000397,0.017437,0.000000,0.000000,0.000000,0.000028,0.000028,0.002499,9.345295,9.345295,9.345291,0.250344,0.250344,0.250336,1.000000,1.000000,0.000000,0.000000,0.000000,0.002476,0.002475,0.000121,1.000000,1.000000,1.000000
1768299698.962733,179.997239,-179.263008,178.700966,1000.000179,1000.000116,1000.000510,0.000000,-0.000001,0.001018,0.000000,0.000000,-0.000069,-0.000122,-0.000042,0.000223,-0.000395,0.017404,0.000000,0.000000,0.000000,0.000028,0.000028,0.002499,9.348241,9.348241,9.348237,0.250346,0.250346,0.250338,1.000000,1.000000,0.000000,0.000000,0.000000,0.002476,0.002475,0.000121,1.000000,1.000000,1.000000
1768299698.965692,179.997221,-179.263263,178.700592,1000.000155,1000.000079,1000.000510,0.000000,-0.000001,0.001018,0.000000,0.000000,-0.000068,-0.000122,-0.000042,0.000224,-0.000394,0.017412,0.000000,0.000000,0.000000,0.000028,0.000028,0.002499,9.351199,9.351199,9.351195,0.250347,0.250347,0.250339,1.000000,1.000000,0.000000,0.000000,0.000000,0.002476,0.002475,0.000120,1.000000,1.000000,1.000000
1768299698.970549,179.997157,-179.263796,178.701341,1000.000104,1000.000152,1000.000506,0.000000,-0.000001,0.001019,0.000000,0.000000,-0.000070,-0.000123,-0.000041,0.000226,-0.000396,0.017424,0.000000,0.000000,0.000000,0.000028,0.000028,0.002499,9.354169,9.354169,9.354165,0.250349,0.250349,0.250341,1.000000,1.000000,0.000000,0.000000,0.000000,0.002476,0.002475,0.000120,1.000000,1.000000,1.000000
1768299698.977971,179.997132,-179.264050,178.701253,1000.000080,1000.000143,1000.000533,0.000000,-0.000001,0.001017,0.000000,0.000000,-0.000069,-0.000123,-0.000041,0.000226,-0.000396,0.017394,0.000000,0.000000,0.000000,0.000028,0.000028,0.002499,9.357152,9.357152,9.357148,0.250350,0.250350,0.250342,1.000000,1.000000,0.000000,0.000000,0.000000,0.002476,0.002475,0.000119,1.000000,1.000000,1.000000
1768299698.982951,179.997139,-179.264022,178.700607,1000.000084,1000.000078,1000.000561,0.000000,-0.000001,0.001015,0.000000,0.000000,-0.000068,-0.000122,-0.000041,0.000225,-0.000393,0.017362,0.000000,0.000000,0.000000,0.000028,0.000028,0.002499,9.360148,9.360148,9.360144,0.250352,0.250352,0.250344,1.000000,1.000000,0.000000,0.000000,0.000000,0.002476,0.002476,0.000119,1.000000,1.000000,1.000000
1768299698.987687,179.997114,-179.264273,178.700800,1000.000060,1000.000097,1000.000587,0.000000,-0.000001,0.001014,0.000000,0.000000,-0.000068,-0.000122,-0.000041,0.000226,-0.000393,0.017333,0.000000,0.000000,0.000000,0.000028,0.000028,0.002499,9.363156,9.363156,9.363152,0.250353,0.250353,0.250345,1.000000,1.000000,0.000000,0.000000,0.000000,0.002476,0.002476,0.000118,1.000000,1.000000,1.000000
1768299698.990484,179.997088,-179.264518,178.701540,1000.000037,1000.000170,1000.000583,0.000000,-0.000001,0.001014,0.000000,0.000000,-0.000069,-0.000122,-0.000041,0.000226,-0.000395,0.017344,0.000000,0.000000,0.000000,0.000028,0.000028,0.002499,9.366177,9.366177,9.366172,0.250355,0.250355,0.250347,1.000000,1.000000,0.000000,0.000000,0.000000,0.002476,0.002476,0.000118,1.000000,1.000000,1.000000
1768299698.997713,179.997092,-179.264486,178.701446,1000.000041,1000.000160,1000.000582,0.000000,-0.000001,0.001015,0.000000,0.000000,-0.000068,-0.000121,-0.000041,0.000226,-0.000395,0.017353,0.000000,0.000000,0.000000,0.000028,0.000028,0.002499,9.369210,9.369210,9.369206,0.250356,0.250356,0.250348,1.000000,1.000000,0.000000,0.000000,0.000000,0.002476,0.002476,0.000118,1.000000,1.000000,1.000000
1768299699.002915,179.997097,-179.264457,178.700807,1000.000046,1000.000095,1000.000610,0.000000,-0.000001,0.001013,0.000000,0.000000,-0.000067,-0.000121,-0.000040,0.000226,-0.000393,0.017321,0.000000,0.000000,0.000000,0.000028,0.000028,0.002499,9.372255,9.372255,9.372251,0.250357,0.250357,0.250349,1.000000,1.000000,0.000000,0.000000,0.000000,0.002476,0.002476,0.000117,1.000000,1.000000,1.000000
1768299699.005501,179.997102,-179.264428,178.700172,1000.000050,1000.000029,1000.000639,0.000000,-0.000001,0.001011,0.000000,0.000000,-0.000065,-0.000120,-0.000040,0.000225,-0.000391,0.017290,0.000000,0.000000,0.000000,0.000028,0.000028,0.002499,9.375314,9.375314,9.375309,0.250359,0.250359,0.250351,1.000000,1.000000,0.000000,0.000000,0.000000,0.002476,0.002476,0.000117,1.000000,1.000000,1.000000
1768299699.012656,179.997092,-179.264519,178.700907,1000.000032,1000.000104,1000.000635,0.000000,-0.000001,0.001012,0.000000,0.000000,-0.000066,-0.000124,-0.000040,0.000226,-0.000393,0.017302,0.000000,0.000000,0.000000,0.000028,0.000028,0.002499,9.378384,9.378384,9.378380,0.250360,0.250360,0.250352,1.000000,1.000000,0.000000,0.000000,0.000000,0.002476,0.002476,0.000116,1.000000,1.000000,1.000000
1768299699.017946,179.997109,-179.264341,178.700822,1000.000042,1000.000095,1000.000662,0.000000,-0.000001,0.001010,0.000000,0.000000,-0.000066,-0.000127,-0.000040,0.000225,-0.000392,0.017272,0.000000,0.000000,0.000000,0.000028,0.000028,0.002499,9.381468,9.381468,9.381463,0.250362,0.250362,0.250354,1.000000,1.000000,0.000000,0.000000,0.000000,0.002476,0.002476,0.000116,1.000000,1.000000,1.000000
1768299699.022838,179.997125,-179.264164,178.700193,1000.000052,1000.000028,1000.000691,0.000000,-0.000001,0.001008,0.000000,0.000000,-0.000064,-0.000131,-0.000040,0.000224,-0.000390,0.017241,0.000000,0.000000,0.000000,0.000028,0.000028,0.002499,9.384563,9.384563,9.384559,0.250363,0.250363,0.250355,1.000000,1.000000,0.000000,0.000000,0.000000,0.002476,0.002476,0.000115,1.000000,1.000000,1.000000
1768299699.028041,179.997081,-179.264678,178.700106,999.999999,1000.000019,1000.000688,0.000000,-0.000001,0.001009,0.000000,0.000000,-0.000064,-0.000131,-0.000040,0.000226,-0.000390,0.017251,0.000000,0.000000,0.000000,0.000028,0.000028,0.002499,9.387671,9.387671,9.387667,0.250365,0.250365,0.250357,1.000000,1.000000,0.000000,0.000000,0.000000,0.002476,0.002476,0.000115,1.000000,1.000000,1.000000
1768299699.030443,179.997043,-179.265189,178.700561,999.999946,1000.000066,1000.000684,0.000001,-0.000001,0.001010,0.000000,0.000000,-0.000065,-0.000132,-0.000040,0.000227,-0.000391,0.017262,0.000000,0.000000,0.000000,0.000028,0.000028,0.002499,9.390792,9.390792,9.390788,0.250366,0.250366,0.250358,1.000000,1.000000,0.000000,0.000000,0.000000,0.002476,0.002476,0.000115,1.000000,1.000000,1.000000
1768299699.037800,179.996997,-179.265693,178.700468,999.999894,1000.000056,1000.000653,0.000001,-0.000001,0.001012,0.000000,0.000000,-0.000064,-0.000132,-0.000039,0.000229,-0.000392,0.017310,0.000000,0.000000,0.000000,0.000028,0.000028,0.002499,9.393926,9.393926,9.393921,0.250368,0.250368,0.250360,1.000000,1.000000,0.000000,0.000000,0.000000,0.002476,0.002476,0.000114,1.000000,1.000000,1.000000
1768299699.040474,179.996962,-179.265923,178.699836,999.999871,999.999987,1000.000623,0.000001,-0.000001,0.001015,0.000000,0.000000,-0.000063,-0.000132,-0.000039,0.000231,-0.000391,0.017354,0.000000,0.000000,0.000000,0.000028,0.000028,0.002499,9.397071,9.397071,9.397067,0.250369,0.250369,0.250361,1.000000,1.000000,0.000000,0.000000,0.000000,0.002476,0.002476,0.000114,1.000000,1.000000,1.000000
1768299699.045382,179.996919,-179.266156,178.698945,999.999847,999.999891,1000.000623,0.000001,-0.000001,0.001015,0.000000,0.000000,-0.000061,-0.000132,-0.000039,0.000231,-0.000389,0.017361,0.000000,0.000000,0.000000,0.000028,0.000028,0.002499,9.400230,9.400230,9.400225,0.250371,0.250371,0.250363,1.000000,1.000000,0.000000,0.000000,0.000000,0.002476,0.002476,0.000113,1.000000,1.000000,1.000000
1768299699.053002,179.996918,-179.266386,178.699401,999.999823,999.999939,1000.000620,0.000001,-0.000001,0.001016,0.000000,0.000000,-0.000061,-0.000132,-0.000039,0.000232,-0.000390,0.017371,0.000000,0.000000,0.000000,0.000028,0.000028,0.002499,9.403400,9.403400,9.403396,0.250372,0.250372,0.250364,1.000000,1.000000,0.000000,0.000000,0.000000,0.002476,0.002476,0.000113,1.000000,1.000000,1.000000
1768299699.055397,179.996916,-179.266615,178.699854,999.999800,999.999988,1000.000617,0.000001,-0.000001,0.001016,0.000000,0.000000,-0.000062,-0.000132,-0.000039,0.000233,-0.000392,0.017381,0.000000,0.000000,0.000000,0.000028,0.000028,0.002499,9.406584,9.406584,9.406579,0.250374,0.250374,0.250366,1.000000,1.000000,0.000000,0.000000,0.000000,0.002476,0.002476,0.000112,1.000000,1.000000,1.000000
1768299699.062700,179.996907,-179.266312,178.698976,999.999834,999.999891,1000.000648,0.000001,-0.000001,0.001015,0.000000,0.000000,-0.000060,-0.000131,-0.000039,0.000232,-0.000388,0.017349,0.000000,0.000000,0.000000,0.000028,0.000028,0.002499,9.409780,9.409780,9.409775,0.250375,0.250375,0.250367,1.000000,1.000000,0.000000,0.000000,0.000000,0.002477,0.002476,0.000112,1.000000,1.000000,1.000000
1768299699.065712,179.996899,-179.266012,178.698104,999.999869,999.999794,1000.000678,0.000001,-0.000001,0.001013,0.000000,0.000000,-0.000058,-0.000129,-0.000039,0.000230,-0.000385,0.017318,0.000000,0.000000,0.000000,0.000028,0.000028,0.002499,9.412988,9.412988,9.412983,0.250377,0.250377,0.250368,1.000000,1.000000,0.000000,0.000000,0.000000,0.002477,0.002476,0.000112,1.000000,1.000000,1.000000
1768299699.070550,179.996897,-179.265975,178.698029,999.999874,999.999785,1000.000677,0.000001,-0.000001,0.001013,0.000000,0.000000,-0.000058,-0.000129,-0.000038,0.000230,-0.000385,0.017326,0.000000,0.000000,0.000000,0.000028,0.000028,0.002499,9.416209,9.416209,9.416204,0.250378,0.250378,0.250370,1.000000,1.000000,0.000000,0.000000,0.000000,0.002477,0.002476,0.000111,1.000000,1.000000,1.000000
1768299699.077932,179.996903,-179.265939,178.698218,999.999880,999.999806,1000.000674,0.000001,-0.000001,0.001014,0.000000,0.000000,-0.000058,-0.000128,-0.000038,0.000230,-0.000386,0.017335,0.000000,0.000000,0.000000,0.000028,0.000028,0.002499,9.419442,9.419442,9.419437,0.250379,0.250379,0.250371,1.000000,1.000000,0.000000,0.000000,0.000000,0.002477,0.002476,0.000111,1.000000,1.000000,1.000000
1768299699.080442,179.996896,-179.265903,178.697878,999.999885,999.999767,1000.000673,0.000001,-0.000001,0.001014,0.000000,0.000000,-0.000057,-0.000128,-0.000038,0.000230,-0.000385,0.017343,0.000000,0.000000,0.000000,0.000028,0.000028,0.002499,9.422688,9.422688,9.422683,0.250381,0.250381,0.250373,1.000000,1.000000,0.000000,0.000000,0.000000,0.002477,0.002476,0.000110,1.000000,1.000000,1.000000
1768299699.087672,179.996898,-179.265716,178.697278,999.999897,999.999699,1000.000673,0.000001,-0.000001,0.001015,0.000000,0.000000,-0.000055,-0.000131,-0.000038,0.000230,-0.000384,0.017349,0.000000,0.000000,0.000000,0.000028,0.000028,0.002499,9.425947,9.425947,9.425942,0.250382,0.250382,0.250374,1.000000,1.000000,0.000000,0.000000,0.000000,0.002477,0.002476,0.000110,1.000000,1.000000,1.000000
1768299699.090934,179.996901,-179.265793,178.697207,999.999879,999.999690,1000.000671,0.000001,-0.000001,0.001015,0.000000,0.000000,-0.000055,-0.000134,-0.000038,0.000230,-0.000384,0.017358,0.000000,0.000000,0.000000,0.000028,0.000028,0.002499,9.429218,9.429218,9.429213,0.250384,0.250384,0.250376,1.000000,1.000000,0.000000,0.000000,0.000000,0.002477,0.002476,0.000110,1.000000,1.000000,1.000000
1768299699.095869,179.996919,-179.265870,178.697659,999.999861,999.999741,1000.000667,0.000001,-0.000001,0.001016,0.000000,0.000000,-0.000056,-0.000138,-0.000038,0.000231,-0.000385,0.017368,0.000000,0.000000,0.000000,0.000028,0.000028,0.002499,9.432501,9.432501,9.432496,0.250385,0.250385,0.250377,1.000000,1.000000,0.000000,0.000000,0.000000,0.002477,0.002476,0.000109,1.000000,1.000000,1.000000
1768299699.103007,179.996914,-179.265685,178.697064,999.999873,999.999672,1000.000667,0.000001,-0.000001,0.001016,0.000000,0.000000,-0.000054,-0.000141,-0.000038,0.000230,-0.000383,0.017374,0.000000,0.000000,0.000000,0.000028,0.000028,0.002499,9.435797,9.435797,9.435792,0.250387,0.250387,0.250379,1.000000,1.000000,0.000000,0.000000,0.000000,0.002477,0.002476,0.000109,1.000000,1.000000,1.000000
1768299699.105412,179.996894,-179.265653,178.696473,999.999878,999.999603,1000.000667,0.000001,-0.000001,0.001016,0.000000,0.000000,-0.000053,-0.000140,-0.000037,0.000230,-0.000382,0.017380,0.000000,0.000000,0.000000,0.000028,0.000028,0.002499,9.439106,9.439106,9.439100,0.250388,0.250388,0.250380,1.000000,1.000000,0.000000,0.000000,0.000000,0.002477,0.002476,0.000109,1.000000,1.000000,1.000000
1768299699.112624,179.996902,-179.265881,178.696926,999.999853,999.999655,1000.000663,0.000001,-0.000001,0.001017,0.000000,0.000000,-0.000054,-0.000140,-0.000037,0.000231,-0.000383,0.017390,0.000000,0.000000,0.000000,0.000028,0.000028,0.002499,9.442427,9.442427,9.442421,0.250390,0.250390,0.250382,1.000000,1.000000,0.000000,0.000000,0.000000,0.002477,0.002476,0.000108,1.000000,1.000000,1.000000
1768299699.118016,179.996926,-179.265848,178.697634,999.999858,999.999738,1000.000660,0.000001,-0.000001,0.001018,0.000000,0.000000,-0.000055,-0.000140,-0.000037,0.000231,-0.000386,0.017400,0.000000,0.000000,0.000000,0.000028,0.000028,0.002499,9.445760,9.445760,9.445755,0.250391,0.250391,0.250383,1.000000,1.000000,0.000000,0.000000,0.000000,0.002477,0.002476,0.000108,1.000000,1.000000,1.000000
1768299699.120391,179.996932,-179.265815,178.697821,999.999864,999.999759,1000.000657,0.000001,-0.000001,0.001018,0.000000,0.000000,-0.000055,-0.000139,-0.000037,0.000231,-0.000386,0.017409,0.000000,0.000000,0.000000,0.000028,0.000028,0.002499,9.449106,9.449106,9.449101,0.250393,0.250393,0.250385,1.000000,1.000000,0.000000,0.000000,0.000000,0.002477,0.002476,0.000107,1.000000,1.000000,1.000000
1768299699.127989,179.996921,-179.265786,178.697496,999.999869,999.999720,1000.000688,0.000001,-0.000001,0.001016,0.000000,0.000000,-0.000054,-0.000138,-0.000037,0.000231,-0.000385,0.017380,0.000000,0.000000,0.000000,0.000027,0.000028,0.002499,9.452465,9.452465,9.452459,0.250394,0.250394,0.250386,1.000000,1.000000,0.000000,0.000000,0.000000,0.002477,0.002476,0.000107,1.000000,1.000000,1.000000
1768299699.130438,179.996918,-179.266011,178.697683,999.999844,999.999741,1000.000685,0.000001,-0.000001,0.001017,0.000000,0.000000,-0.000054,-0.000138,-0.000037,0.000232,-0.000386,0.017389,0.000000,0.000000,0.000000,0.000027,0.000028,0.002499,9.455836,9.455836,9.455830,0.250396,0.250396,0.250388,1.000000,1.000000,0.000000,0.000000,0.000000,0.002477,0.002476,0.000107,1.000000,1.000000,1.000000
1768299699.137772,179.996950,-179.265977,178.698638,999.999849,999.999855,1000.000680,0.000001,-0.000001,0.001018,0.000000,0.000000,-0.000056,-0.000138,-0.000037,0.000232,-0.000389,0.017400,0.000000,0.000000,0.000000,0.000027,0.000028,0.002499,9.459220,9.459220,9.459214,0.250397,0.250397,0.250389,1.000000,1.000000,0.000000,0.000000,0.000000,0.002477,0.002476,0.000106,1.000000,1.000000,1.000000
1768299699.140561,179.996965,-179.265944,178.699075,999.999855,999.999907,1000.000677,0.000001,-0.000001,0.001018,0.000000,0.000000,-0.000057,-0.000137,-0.000036,0.000232,-0.000390,0.017409,0.000000,0.000000,0.000000,0.000027,0.000028,0.002499,9.462616,9.462616,9.462610,0.250398,0.250398,0.250390,1.000000,1.000000,0.000000,0.000000,0.000000,0.002477,0.002476,0.000106,1.000000,1.000000,1.000000
1768299699.145382,179.996971,-179.265656,178.698742,999.999891,999.999866,1000.000676,0.000001,-0.000001,0.001018,0.000000,0.000000,-0.000056,-0.000136,-0.000036,0.000231,-0.000389,0.017415,0.000000,0.000000,0.000000,0.000027,0.000028,0.002499,9.466025,9.466025,9.466019,0.250400,0.250400,0.250392,1.000000,1.000000,0.000000,0.000000,0.000000,0.002477,0.002476,0.000106,1.000000,1.000000,1.000000
1768299699.152894,179.996970,-179.265879,178.699176,999.999866,999.999918,1000.000672,0.000001,-0.000001,0.001019,0.000000,0.000000,-0.000057,-0.000136,-0.000036,0.000231,-0.000391,0.017425,0.000000,0.000000,0.000000,0.000027,0.000028,0.002499,9.469446,9.469446,9.469440,0.250401,0.250401,0.250393,1.000000,1.000000,0.000000,0.000000,0.000000,0.002477,0.002476,0.000105,1.000000,1.000000,1.000000
1768299699.155404,179.996975,-179.266101,178.699862,999.999840,1000.000002,1000.000668,0.000001,-0.000001,0.001020,0.000000,0.000000,-0.000058,-0.000136,-0.000036,0.000232,-0.000393,0.017435,0.000000,0.000000,0.000000,0.000027,0.000028,0.002499,9.472879,9.472879,9.472873,0.250403,0.250403,0.250395,1.000000,1.000000,0.000000,0.000000,0.000000,0.002477,0.002476,0.000105,1.000000,1.000000,1.000000
1768299699.162730,179.996980,-179.265915,178.699528,999.999853,999.999960,1000.000667,0.000001,-0.000001,0.001020,0.000000,0.000000,-0.000057,-0.000139,-0.000036,0.000232,-0.000392,0.017442,0.000000,0.000000,0.000000,0.000027,0.000028,0.002499,9.476326,9.476326,9.476319,0.250404,0.250404,0.250396,1.000000,1.000000,0.000000,0.000000,0.000000,0.002477,0.002476,0.000104,1.000000,1.000000,1.000000
1768299699.165682,179.996968,-179.265732,178.698690,999.999866,999.999856,1000.000667,0.000001,-0.000001,0.001020,0.000000,0.000000,-0.000055,-0.000142,-0.000036,0.000232,-0.000390,0.017447,0.000000,0.000000,0.000000,0.000027,0.000028,0.002499,9.479784,9.479784,9.479778,0.250406,0.250406,0.250398,1.000000,1.000000,0.000000,0.000000,0.000000,0.002477,0.002476,0.000104,1.000000,1.000000,1.000000
1768299699.170595,179.996924,-179.266209,178.698116,999.999808,999.999784,1000.000699,0.000001,-0.000001,0.001019,0.000000,0.000000,-0.000053,-0.000142,-0.000036,0.000233,-0.000387,0.017419,0.000000,0.000000,0.000000,0.000027,0.000028,0.002499,9.483256,9.483256,9.483249,0.250407,0.250407,0.250399,1.000000,1.000000,0.000000,0.000000,0.000000,0.002477,0.002476,0.000104,1.000000,1.000000,1.000000
1768299699.177926,179.996932,-179.266681,178.698800,999.999751,999.999868,1000.000694,0.000001,-0.000001,0.001019,0.000000,0.000000,-0.000055,-0.000143,-0.000036,0.000234,-0.000390,0.017429,0.000000,0.000000,0.000000,0.000027,0.000028,0.002499,9.486739,9.486739,9.486733,0.250409,0.250409,0.250401,1.000000,1.000000,0.000000,0.000000,0.000000,0.002477,0.002476,0.000103,1.000000,1.000000,1.000000
1768299699.180451,179.996927,-179.267149,178.699228,999.999693,999.999922,1000.000689,0.000001,-0.000001,0.001020,0.000000,0.000000,-0.000055,-0.000143,-0.000035,0.000236,-0.000391,0.017439,0.000000,0.000000,0.000000,0.000027,0.000028,0.002499,9.490236,9.490236,9.490229,0.250410,0.250410,0.250402,1.000000,1.000000,0.000000,0.000000,0.000000,0.002477,0.002476,0.000103,1.000000,1.000000,1.000000
1768299699.187687,179.996882,-179.267367,178.698655,999.999667,999.999849,1000.000721,0.000001,-0.000001,0.001018,0.000000,0.000000,-0.000054,-0.000143,-0.000035,0.000236,-0.000389,0.017411,0.000000,0.000000,0.000000,0.000027,0.000028,0.002499,9.493744,9.493744,9.493738,0.250412,0.250412,0.250404,1.000000,1.000000,0.000000,0.000000,0.000000,0.002477,0.002476,0.000103,1.000000,1.000000,1.000000
1768299699.190429,179.996853,-179.267583,178.698336,999.999642,999.999807,1000.000753,0.000001,-0.000001,0.001017,0.000000,0.000000,-0.000053,-0.000143,-0.000035,0.000236,-0.000387,0.017385,0.000000,0.000000,0.000000,0.000027,0.000028,0.002499,9.497266,9.497266,9.497259,0.250413,0.250413,0.250405,1.000000,1.000000,0.000000,0.000000,0.000000,0.002477,0.002476,0.000102,1.000000,1.000000,1.000000
1768299699.195392,179.996883,-179.267794,178.699013,999.999616,999.999893,1000.000748,0.000001,-0.000001,0.001017,0.000000,0.000000,-0.000054,-0.000143,-0.000035,0.000237,-0.000390,0.017395,0.000000,0.000000,0.000000,0.000027,0.000028,0.002499,9.500800,9.500800,9.500793,0.250415,0.250415,0.250407,1.000000,1.000000,0.000000,0.000000,0.000000,0.002477,0.002476,0.000102,1.000000,1.000000,1.000000
1768299699.202945,179.996879,-179.267756,178.698938,999.999623,999.999883,1000.000746,0.000001,-0.000001,0.001018,0.000000,0.000000,-0.000054,-0.000142,-0.000035,0.000237,-0.000389,0.017402,0.000000,0.000000,0.000000,0.000027,0.000028,0.002499,9.504346,9.504346,9.504339,0.250416,0.250416,0.250408,1.000000,1.000000,0.000000,0.000000,0.000000,0.002477,0.002476,0.000102,1.000000,1.000000,1.000000
1768299699.207975,179.996843,-179.267468,178.698117,999.999662,999.999776,1000.000746,0.000001,-0.000001,0.001018,0.000000,0.000000,-0.000052,-0.000141,-0.000035,0.000236,-0.000387,0.017407,0.000000,0.000000,0.000000,0.000027,0.000028,0.002499,9.507905,9.507905,9.507898,0.250418,0.250418,0.250409,1.000000,1.000000,0.000000,0.000000,0.000000,0.002477,0.002476,0.000101,1.000000,1.000000,1.000000
1768299699.212655,179.996825,-179.267428,178.697793,999.999669,999.999733,1000.000712,0.000001,-0.000001,0.001020,0.000000,0.000000,-0.000051,-0.000140,-0.000035,0.000236,-0.000387,0.017446,0.000000,0.000000,0.000000,0.000027,0.000028,0.002499,9.511476,9.511476,9.511469,0.250419,0.250419,0.250411,1.000000,1.000000,0.000000,0.000000,0.000000,0.002477,0.002476,0.000101,1.000000,1.000000,1.000000
1768299699.215393,179.996842,-179.267141,178.697965,999.999708,999.999755,1000.000676,0.000001,-0.000001,0.001023,0.000000,0.000000,-0.000051,-0.000139,-0.000035,0.000236,-0.000388,0.017487,0.000000,0.000000,0.000000,0.000027,0.000028,0.002499,9.515060,9.515060,9.515053,0.250420,0.250420,0.250412,1.000000,1.000000,0.000000,0.000000,0.000000,0.002477,0.002476,0.000101,1.000000,1.000000,1.000000
1768299699.222749,179.996847,-179.266855,178.697890,999.999747,999.999745,1000.000641,0.000001,-0.000001,0.001025,0.000000,0.000000,-0.000051,-0.000138,-0.000035,0.000236,-0.000389,0.017526,0.000000,0.000000,0.000000,0.000027,0.000028,0.002499,9.518657,9.518657,9.518650,0.250422,0.250422,0.250414,1.000000,1.000000,0.000000,0.000000,0.000000,0.002477,0.002476,0.000100,1.000000,1.000000,1.000000
1768299699.227987,179.996831,-179.266574,178.697327,999.999786,999.999670,1000.000641,0.000001,-0.000001,0.001025,0.000000,0.000000,-0.000050,-0.000137,-0.000034,0.000235,-0.000387,0.017531,0.000000,0.000000,0.000000,0.000027,0.000028,0.002499,9.522266,9.522266,9.522259,0.250423,0.250423,0.250415,1.000000,1.000000,0.000000,0.000000,0.000000,0.002477,0.002476,0.000100,1.000000,1.000000,1.000000
1768299699.230463,179.996815,-179.266297,178.696773,999.999825,999.999596,1000.000675,0.000001,-0.000001,0.001024,0.000000,0.000000,-0.000048,-0.000136,-0.000034,0.000234,-0.000385,0.017503,0.000000,0.000000,0.000000,0.000027,0.000028,0.002499,9.525887,9.525887,9.525880,0.250425,0.250425,0.250417,1.000000,1.000000,0.000000,0.000000,0.000000,0.002477,0.002476,0.000100,1.000000,1.000000,1.000000
1768299699.237779,179.996835,-179.266265,178.697445,999.999831,999.999685,1000.000671,0.000001,-0.000001,0.001024,0.000000,0.000000,-0.000050,-0.000135,-0.000034,0.000234,-0.000387,0.017512,0.000000,0.000000,0.000000,0.000027,0.000028,0.002499,9.529521,9.529521,9.529514,0.250426,0.250426,0.250418,1.000000,1.000000,0.000000,0.000000,0.000000,0.002477,0.002476,0.000099,1.000000,1.000000,1.000000
1768299699.240481,179.996855,-179.266232,178.698112,999.999837,999.999773,1000.000666,0.000001,-0.000001,0.001025,0.000000,0.000000,-0.000051,-0.000135,-0.000034,0.000234,-0.000389,0.017521,0.000000,0.000000,0.000000,0.000027,0.000028,0.002499,9.533168,9.533168,9.533160,0.250428,0.250428,0.250420,1.000000,1.000000,0.000000,0.000000,0.000000,0.002477,0.002476,0.000099,1.000000,1.000000,1.000000
1768299699.247713,179.996845,-179.266204,178.697803,999.999842,999.999731,1000.000700,0.000001,-0.000001,0.001023,0.000000,0.000000,-0.000050,-0.000134,-0.000034,0.000233,-0.000388,0.017495,0.000000,0.000000,0.000000,0.000027,0.000028,0.002499,9.536827,9.536827,9.536819,0.250429,0.250429,0.250421,1.000000,1.000000,0.000000,0.000000,0.000000,0.002477,0.002476,0.000099,1.000000,1.000000,1.000000
1768299699.253032,179.996836,-179.266419,178.697739,999.999815,999.999722,1000.000731,0.000001,-0.000001,0.001022,0.000000,0.000000,-0.000050,-0.000134,-0.000034,0.000233,-0.000387,0.017469,0.000000,0.000000,0.000000,0.000027,0.000028,0.002499,9.540498,9.540498,9.540491,0.250431,0.250431,0.250423,1.000000,1.000000,0.000000,0.000000,0.000000,0.002477,0.002476,0.000099,1.000000,1.000000,1.000000
1768299699.255413,179.996842,-179.266629,178.698158,999.999788,999.999778,1000.000727,0.000001,-0.000001,0.001022,0.000000,0.000000,-0.000050,-0.000134,-0.000034,0.000234,-0.000389,0.017478,0.000000,0.000000,0.000000,0.000027,0.000028,0.002499,9.544182,9.544182,9.544175,0.250432,0.250432,0.250424,1.000000,1.000000,0.000000,0.000000,0.000000,0.002477,0.002476,0.000098,1.000000,1.000000,1.000000
1768299699.262718,179.996848,-179.266596,178.698331,999.999794,999.999801,1000.000724,0.000001,-0.000001,0.001022,0.000000,0.000000,-0.000051,-0.000134,-0.000034,0.000234,-0.000389,0.017485,0.000000,0.000000,0.000000,0.000027,0.000028,0.002499,9.547879,9.547879,9.547871,0.250434,0.250434,0.250426,1.000000,1.000000,0.000000,0.000000,0.000000,0.002477,0.002476,0.000098,1.000000,1.000000,1.000000
1768299699.265686,179.996838,-179.266566,178.698023,999.999800,999.999758,1000.000758,0.000001,-0.000001,0.001021,0.000000,0.000000,-0.000050,-0.000133,-0.000033,0.000234,-0.000388,0.017459,0.000000,0.000000,0.000000,0.000027,0.000028,0.002499,9.551588,9.551588,9.551580,0.250435,0.250435,0.250427,1.000000,1.000000,0.000000,0.000000,0.000000,0.002477,0.002476,0.000098,1.000000,1.000000,1.000000
1768299699.270576,179.996813,-179.266535,178.697234,999.999806,999.999649,1000.000793,0.000001,-0.000001,0.001019,0.000000,0.000000,-0.000048,-0.000133,-0.000033,0.000233,-0.000385,0.017432,0.000000,0.000000,0.000000,0.000027,0.000028,0.002499,9.555310,9.555310,9.555302,0.250437,0.250437,0.250429,1.000000,1.000000,0.000000,0.000000,0.000000,0.002477,0.002476,0.000097,1.000000,1.000000,1.000000
1768299699.277993,179.996816,-179.266985,178.697651,999.999745,999.999706,1000.000788,0.000001,-0.000001,0.001020,0.000000,0.000000,-0.000049,-0.000133,-0.000033,0.000235,-0.000386,0.017441,0.000000,0.000000,0.000000,0.000027,0.000028,0.002499,9.559044,9.559044,9.559036,0.250438,0.250438,0.250430,1.000000,1.000000,0.000000,0.000000,0.000000,0.002477,0.002476,0.000097,1.000000,1.000000,1.000000
1768299699.280456,179.996833,-179.267192,178.698306,999.999718,999.999797,1000.000783,0.000001,-0.000001,0.001020,0.000000,0.000000,-0.000050,-0.000133,-0.000033,0.000235,-0.000389,0.017450,0.000000,0.000000,0.000000,0.000027,0.000028,0.002499,9.562790,9.562790,9.562782,0.250440,0.250440,0.250431,1.000000,1.000000,0.000000,0.000000,0.000000,0.002477,0.002476,0.000097,1.000000,1.000000,1.000000
