time,px_est,py_est,pz_est,vx_est,vy_est,vz_est,qw_est,qx_est,qy_est,qz_est,pbarx_est,pbary_est,bgx_est,bgy_est,bgz_est,bax_est,bay_est,baz_est,px_true,py_true,pz_true,vx_true,vy_true,vz_true,qw_true,qx_true,qy_true,qz_true,pbarx_true,pbary_true,bgx_true,bgy_true,bgz_true,bax_true,bay_true,baz_true,P_dtheta_x,P_dtheta_y,P_dtheta_z,P_dpr_x,P_dpr_y,P_dpr_z,P_dvr_x,P_dvr_y,P_dvr_z,P_dpbar_x,P_dpbar_y,P_dbgyr_x,P_dbgyr_y,P_dbgyr_z,P_dbacc_x,P_dbacc_y,P_dbacc_z
0.000000,-49.499503,-9.500249,-24.499998,0.098850,-0.049696,0.000728,0.999886,0.008677,0.008779,0.008692,0.209939,0.479928,0.000000,0.000000,0.000000,0.000000,0.000000,0.000000,-50.000000,-10.000000,-25.000000,0.000000,0.000000,0.000000,1.000000,0.000000,0.000000,0.000000,0.200000,0.500000,0.005000,-0.002999,0.002001,0.020001,-0.009995,0.014989,0.002500,0.002500,0.002500,9.000006,9.000006,9.000006,0.250006,0.250006,0.250000,0.009999,0.009999,0.000025,0.000025,0.000025,0.002500,0.002500,0.002500
0.050000,-49.494740,-9.502471,-24.500002,0.091607,-0.038720,0.000485,0.999885,0.008693,0.008735,0.008806,0.202469,0.497165,0.000001,-0.000002,-0.000001,-0.000000,-0.000000,0.000000,-49.999993,-10.000000,-25.000001,0.000412,0.000028,-0.000034,1.000000,0.000003,0.000007,0.000010,0.199983,0.500014,0.005002,-0.003001,0.001999,0.020001,-0.009990,0.015027,0.002500,0.002500,0.002500,9.000757,9.000757,9.000756,0.250735,0.250733,0.250008,0.000025,0.000025,0.000025,0.000025,0.000025,0.002500,0.002500,0.002500
0.100000,-49.493316,-9.501825,-24.498857,0.073572,-0.009392,0.011166,0.999884,0.008964,0.008664,0.008775,0.202933,0.498153,0.000050,0.000069,-0.000128,0.000010,-0.000021,-0.000011,-49.999946,-9.999996,-25.000004,0.001575,0.000105,-0.000131,1.000000,0.000013,0.000026,0.000039,0.199937,0.500053,0.005002,-0.003002,0.002000,0.020010,-0.010012,0.015065,0.002500,0.002500,0.002500,9.002730,9.002736,9.002728,0.251970,0.250160,0.247495,0.000009,0.000009,0.000025,0.000025,0.000025,0.002500,0.002500,0.002500
0.150000,-49.502021,-9.493883,-24.485187,0.016536,0.052853,0.096922,0.999877,0.009381,0.008816,0.008953,0.201269,0.495671,0.000103,0.000601,-0.000452,0.000061,-0.000075,-0.000091,-49.999823,-9.999988,-25.000015,0.003486,0.000233,-0.000291,1.000000,0.000029,0.000058,0.000087,0.199860,0.500118,0.005001,-0.002999,0.002002,0.020015,-0.010003,0.015051,0.002500,0.002501,0.002501,9.005934,9.005893,9.005857,0.254082,0.249600,0.243890,0.000007,0.000007,0.000025,0.000025,0.000025,0.002500,0.002500,0.002500
0.200000,-49.497332,-9.474488,-24.497942,0.038141,0.144981,0.012503,0.999869,0.009992,0.008690,0.009300,0.199305,0.497087,0.000379,0.000104,-0.000806,0.000027,-0.000169,0.000015,-49.999585,-9.999972,-25.000035,0.006145,0.000411,-0.000513,1.000000,0.000051,0.000102,0.000154,0.199753,0.500210,0.005000,-0.003001,0.002008,0.020036,-0.010033,0.015042,0.002500,0.002501,0.002501,9.010399,9.010107,9.010008,0.256796,0.247968,0.238253,0.000006,0.000007,0.000025,0.000025,0.000025,0.002500,0.002500,0.002500
0.250000,-49.482533,-9.458157,-24.523193,0.078267,0.190926,-0.086551,0.999867,0.010293,0.008408,0.009448,0.198580,0.498456,0.000555,-0.000502,-0.000916,-0.000042,-0.000221,0.000175,-49.999196,-9.999946,-25.000067,0.009550,0.000639,-0.000797,1.000000,0.000080,0.000159,0.000239,0.199617,0.500328,0.005000,-0.003000,0.002008,0.020046,-0.010026,0.015031,0.002496,0.002501,0.002502,9.015906,9.014526,9.014364,0.257268,0.234405,0.221064,0.000005,0.000005,0.000025,0.000024,0.000024,0.002500,0.002500,0.002500
0.300000,-49.482419,-9.450098,-24.521558,0.065855,0.195248,-0.066523,0.999863,0.010494,0.008593,0.009512,0.198583,0.498535,0.000524,-0.000386,-0.000900,-0.000025,-0.000211,0.000136,-49.998618,-9.999908,-25.000115,0.013698,0.000918,-0.001145,1.000000,0.000114,0.000228,0.000342,0.199451,0.500473,0.005000,-0.002999,0.002005,0.020038,-0.010030,0.015033,0.002493,0.002500,0.002502,9.022545,9.019798,9.019548,0.260714,0.228183,0.210382,0.000006,0.000006,0.000025,0.000024,0.000024,0.002500,0.002500,0.002500
0.350000,-49.456152,-9.426991,-24.559713,0.105775,0.243943,-0.162821,0.999858,0.011001,0.008223,0.009733,0.197826,0.499751,0.000697,-0.000969,-0.001017,-0.000133,-0.000274,0.000378,-49.997814,-9.999854,-25.000183,0.018588,0.001248,-0.001555,1.000000,0.000155,0.000310,0.000465,0.199256,0.500646,0.004998,-0.002999,0.002007,0.020046,-0.010025,0.015001,0.002481,0.002499,0.002503,9.029483,9.023638,9.023611,0.261442,0.206768,0.187770,0.000005,0.000005,0.000025,0.000023,0.000023,0.002500,0.002500,0.002500
0.400000,-49.413632,-9.420815,-24.617935,0.174079,0.239544,-0.283283,0.999861,0.010974,0.007409,0.010090,0.197330,0.501265,0.000768,-0.001725,-0.000859,-0.000334,-0.000212,0.000755,-49.996746,-9.999782,-25.000272,0.024216,0.001629,-0.002027,1.000000,0.000202,0.000404,0.000605,0.199032,0.500846,0.004998,-0.002998,0.002005,0.020040,-0.010047,0.014994,0.002473,0.002498,0.002504,9.037818,9.028808,9.028947,0.266757,0.199762,0.177027,0.000005,0.000006,0.000024,0.000022,0.000023,0.002500,0.002500,0.002500
0.450000,-49.518417,-9.571708,-24.523563,0.119711,-0.126077,-0.047019,0.999897,0.005853,0.008103,0.010313,0.200151,0.499207,-0.000246,-0.000399,0.000682,-0.000097,0.000935,-0.000168,-49.995380,-9.999690,-25.000386,0.030579,0.002062,-0.002563,1.000000,0.000255,0.000510,0.000765,0.198779,0.501075,0.005001,-0.003000,0.002006,0.020050,-0.010090,0.014955,0.002451,0.002494,0.002505,9.045053,9.031516,9.032576,0.270104,0.179968,0.158168,0.000005,0.000005,0.000024,0.000022,0.000022,0.002500,0.002499,0.002499
0.500000,-49.480049,-9.506586,-24.572900,0.143892,0.031837,-0.138940,0.999878,0.008436,0.007882,0.010546,0.198595,0.500563,0.000145,-0.000917,0.000086,-0.000200,0.000387,0.000258,-49.993676,-9.999575,-25.000529,0.037672,0.002548,-0.003162,0.999999,0.000314,0.000628,0.000942,0.198498,0.501331,0.005005,-0.003002,0.002003,0.020065,-0.010122,0.014979,0.002438,0.002493,0.002506,9.055100,9.036455,9.038111,0.278152,0.175994,0.150366,0.000005,0.000005,0.000024,0.000021,0.000022,0.002500,0.002499,0.002499
0.550000,-49.422433,-9.515657,-24.632107,0.204971,0.016937,-0.232953,0.999886,0.008129,0.006930,0.010675,0.198854,0.502377,0.000188,-0.001490,0.000234,-0.000472,0.000505,0.000751,-49.991600,-9.999434,-25.000704,0.045491,0.003086,-0.003824,0.999999,0.000379,0.000758,0.001137,0.198188,0.501617,0.005006,-0.003000,0.002003,0.020068,-0.010145,0.014981,0.002423,0.002491,0.002508,9.066337,9.041516,9.043919,0.287509,0.173529,0.143609,0.000006,0.000006,0.000024,0.000021,0.000022,0.002500,0.002499,0.002499
0.600000,-49.433990,-9.421931,-24.643419,0.172228,0.199973,-0.233001,0.999837,0.011963,0.007734,0.011054,0.196577,0.502668,0.000497,-0.001443,-0.000438,-0.000320,-0.000299,0.000773,-49.989115,-9.999265,-25.000913,0.054031,0.003677,-0.004550,0.999999,0.000450,0.000901,0.001351,0.197851,0.501932,0.005005,-0.003001,0.002004,0.020077,-0.010125,0.014959,0.002384,0.002485,0.002509,9.076481,9.043853,9.048173,0.295619,0.161991,0.132802,0.000005,0.000005,0.000024,0.000021,0.000022,0.002500,0.002498,0.002499
0.650000,-49.488187,-9.415883,-24.597722,0.113730,0.205809,-0.147039,0.999818,0.012165,0.009177,0.011498,0.195665,0.501431,0.000407,-0.000922,-0.000466,0.000033,-0.000307,0.000079,-49.986185,-9.999066,-25.001160,0.063286,0.004322,-0.005339,0.999998,0.000527,0.001055,0.001582,0.197486,0.502276,0.005002,-0.002998,0.002004,0.020074,-0.010121,0.014974,0.002363,0.002482,0.002511,9.089888,9.049151,9.054643,0.307599,0.163030,0.128667,0.000005,0.000005,0.000024,0.000021,0.000022,0.002500,0.002498,0.002498
0.700000,-49.482664,-9.503478,-24.592306,0.140617,0.044228,-0.128417,0.999865,0.007480,0.008555,0.011849,0.196619,0.501572,0.000160,-0.000838,0.000057,-0.000100,0.000737,-0.000066,-49.982775,-9.998832,-25.001448,0.073251,0.005021,-0.006191,0.999997,0.000611,0.001221,0.001832,0.197093,0.502650,0.005004,-0.002996,0.002004,0.020080,-0.010114,0.014938,0.002311,0.002471,0.002512,9.103152,9.051980,9.059977,0.318421,0.156489,0.122110,0.000004,0.000004,0.000024,0.000020,0.000021,0.002499,0.002498,0.002498
0.750000,-49.441684,-9.493097,-24.630697,0.180023,0.064710,-0.167841,0.999866,0.007855,0.007729,0.012081,0.196216,0.503013,0.000214,-0.001084,0.000043,-0.000346,0.000686,0.000443,-49.978848,-9.998563,-25.001780,0.083919,0.005775,-0.007107,0.999997,0.000700,0.001399,0.002099,0.196674,0.503054,0.005005,-0.002995,0.002006,0.020087,-0.010131,0.014935,0.002282,0.002466,0.002514,9.120009,9.057806,9.067333,0.332537,0.159879,0.119664,0.000005,0.000005,0.000024,0.000020,0.000021,0.002499,0.002497,0.002497
0.800000,-49.393968,-9.668282,-24.630238,0.244392,-0.232644,-0.158538,0.999905,-0.002606,0.005781,0.012235,0.198821,0.503645,-0.000060,-0.001041,0.000741,-0.000775,0.002903,0.000406,-49.974371,-9.998254,-25.002160,0.095283,0.006586,-0.008088,0.999996,0.000794,0.001589,0.002383,0.196228,0.503488,0.005008,-0.002996,0.002005,0.020126,-0.010142,0.014958,0.002212,0.002450,0.002516,9.136707,9.061478,9.073949,0.345475,0.156549,0.115767,0.000004,0.000004,0.000024,0.000020,0.000021,0.002499,0.002496,0.002496
0.850000,-49.353213,-9.729005,-24.641953,0.279783,-0.322407,-0.162016,0.999893,-0.005447,0.005058,0.012592,0.199447,0.504238,-0.000108,-0.001074,0.000903,-0.000962,0.003557,0.000505,-49.969309,-9.997903,-25.002590,0.107336,0.007452,-0.009132,0.999994,0.000895,0.001790,0.002684,0.195756,0.503953,0.005012,-0.002993,0.002002,0.020116,-0.010161,0.014957,0.002175,0.002442,0.002517,9.156495,9.068056,9.082326,0.361462,0.161507,0.114382,0.000004,0.000004,0.000024,0.000020,0.000021,0.002499,0.002496,0.002496
0.900000,-49.342139,-9.710495,-24.663530,0.297495,-0.270101,-0.175968,0.999898,-0.003170,0.005007,0.012992,0.198665,0.505161,-0.000063,-0.001150,0.000807,-0.001016,0.003110,0.000802,-49.963626,-9.997508,-25.003074,0.120071,0.008376,-0.010240,0.999993,0.001001,0.002002,0.003003,0.195259,0.504448,0.005014,-0.002993,0.002004,0.020142,-0.010198,0.014958,0.002134,0.002432,0.002519,9.177492,9.075111,9.091219,0.378296,0.166987,0.113265,0.000005,0.000004,0.000024,0.000020,0.000021,0.002499,0.002495,0.002495
0.950000,-49.481129,-9.681355,-24.606629,0.173998,-0.190546,-0.107352,0.999855,0.001346,0.010098,0.013667,0.197645,0.504006,-0.000159,-0.000764,0.000741,0.000057,0.002327,-0.000957,-49.957290,-9.997064,-25.003615,0.133479,0.009357,-0.011413,0.999991,0.001113,0.002226,0.003338,0.194736,0.504974,0.005013,-0.002996,0.002005,0.020174,-0.010201,0.014958,0.002041,0.002405,0.002521,9.195894,9.080268,9.099798,0.392999,0.165622,0.111423,0.000004,0.000004,0.000024,0.000020,0.000021,0.002498,0.002494,0.002494
1.000000,-49.497283,-9.649557,-24.620154,0.178459,-0.119779,-0.114110,0.999841,0.004490,0.010130,0.013998,0.196796,0.504098,-0.000150,-0.000801,0.000676,0.000080,0.001718,-0.000734,-49.950267,-9.996571,-25.004216,0.147552,0.010398,-0.012650,0.999989,0.001230,0.002460,0.003690,0.194188,0.505531,0.005010,-0.002997,0.002003,0.020149,-0.010196,0.014947,0.001992,0.002392,0.002523,9.219697,9.088227,9.109808,0.411074,0.171524,0.110848,0.000004,0.000004,0.000024,0.000020,0.000021,0.002498,0.002494,0.002493
1.050000,-49.531393,-9.606152,-24.627531,0.173637,-0.032886,-0.117105,0.999802,0.008341,0.010800,0.014463,0.195705,0.504879,-0.000163,-0.000797,0.000620,0.000163,0.000996,-0.000570,-49.942524,-9.996024,-25.004881,0.162280,0.011497,-0.013952,0.999987,0.001353,0.002706,0.004059,0.193616,0.506119,0.005011,-0.002997,0.002004,0.020164,-0.010175,0.014948,0.001881,0.002356,0.002526,9.242534,9.094332,9.119741,0.426429,0.170124,0.109842,0.000004,0.000003,0.000024,0.000020,0.000021,0.002498,0.002493,0.002491
1.100000,-49.491843,-9.589142,-24.655110,0.231902,0.003458,-0.136880,0.999802,0.009617,0.009029,0.014882,0.194897,0.505857,-0.000141,-0.000888,0.000599,-0.000246,0.000762,0.000348,-49.934028,-9.995420,-25.005612,0.177655,0.012658,-0.015318,0.999985,0.001481,0.002963,0.004444,0.193020,0.506739,0.005011,-0.002991,0.002003,0.020141,-0.010169,0.014939,0.001824,0.002337,0.002528,9.271415,9.103139,9.130889,0.445487,0.175818,0.109635,0.000004,0.000004,0.000024,0.000020,0.000021,0.002497,0.002492,0.002490
1.150000,-49.433159,-9.609558,-24.676746,0.296106,-0.029375,-0.152429,0.999829,0.007751,0.007216,0.015147,0.195013,0.507027,-0.000086,-0.000932,0.000575,-0.000682,0.001176,0.001047,-49.924748,-9.994757,-25.006414,0.193666,0.013879,-0.016749,0.999982,0.001615,0.003230,0.004845,0.192401,0.507391,0.005010,-0.002992,0.001999,0.020149,-0.010153,0.014949,0.001700,0.002290,0.002530,9.299526,9.110043,9.142213,0.460431,0.173661,0.109247,0.000004,0.000003,0.000024,0.000020,0.000021,0.002497,0.002491,0.002488
1.200000,-49.461626,-9.550035,-24.682494,0.272454,0.089272,-0.149345,0.999752,0.013188,0.009039,0.015519,0.193878,0.507909,-0.000178,-0.000952,0.000617,-0.000382,0.000159,0.000870,-49.914651,-9.994031,-25.007288,0.210304,0.015162,-0.018245,0.999978,0.001754,0.003507,0.005261,0.191759,0.508074,0.005013,-0.002991,0.001999,0.020151,-0.010147,0.014923,0.001638,0.002264,0.002533,9.332610,9.119674,9.154571,0.479409,0.178694,0.109312,0.000004,0.000003,0.000024,0.000020,0.000021,0.002496,0.002490,0.002487
1.250000,-49.363178,-9.571906,-24.708517,0.385191,0.043665,-0.163489,0.999800,0.010694,0.005538,0.015942,0.193845,0.509477,-0.000100,-0.000976,0.000568,-0.001173,0.000703,0.002203,-49.903707,-9.993240,-25.008239,0.227557,0.016507,-0.019806,0.999975,0.001898,0.003795,0.005693,0.191095,0.508789,0.005011,-0.002989,0.002003,0.020115,-0.010102,0.014938,0.001575,0.002237,0.002536,9.367981,9.129775,9.167512,0.498470,0.183471,0.109458,0.000004,0.000003,0.000024,0.000020,0.000021,0.002496,0.002489,0.002485
1.300000,-49.567792,-9.640895,-24.668178,0.122140,-0.042612,-0.128334,0.999703,0.007711,0.015869,0.016786,0.193363,0.508169,-0.000084,-0.000895,0.000570,0.000927,0.001423,-0.002140,-49.891885,-9.992379,-25.009270,0.245415,0.017916,-0.021432,0.999971,0.002047,0.004093,0.006140,0.190409,0.509535,0.005010,-0.002987,0.002003,0.020144,-0.010105,0.014952,0.001445,0.002170,0.002538,9.400614,9.137669,9.180887,0.510524,0.179536,0.109540,0.000004,0.000003,0.000024,0.000020,0.000021,0.002495,0.002488,0.002482
1.350000,-49.603209,-9.661195,-24.666729,0.077720,-0.063841,-0.121090,0.999662,0.006963,0.018088,0.017348,0.192771,0.508638,-0.000068,-0.000888,0.000562,0.001323,0.001627,-0.002995,-49.879156,-9.991447,-25.010384,0.263866,0.019390,-0.023122,0.999966,0.002201,0.004401,0.006602,0.189701,0.510314,0.005010,-0.002988,0.002005,0.020171,-0.010088,0.014965,0.001382,0.002137,0.002540,9.440024,9.148529,9.195031,0.528766,0.183340,0.109766,0.000004,0.000003,0.000024,0.000020,0.000021,0.002495,0.002487,0.002481
1.400000,-49.687153,-9.626747,-24.661516,-0.038578,0.020773,-0.115296,0.999519,0.010935,0.022743,0.018016,0.191054,0.508564,-0.000193,-0.000946,0.000671,0.002237,0.000890,-0.004539,-49.865489,-9.990439,-25.011583,0.282898,0.020928,-0.024878,0.999961,0.002360,0.004719,0.007079,0.188973,0.511126,0.005011,-0.002985,0.002007,0.020179,-0.010112,0.014954,0.001254,0.002063,0.002543,9.478007,9.157093,9.209649,0.539327,0.178221,0.109947,0.000004,0.000003,0.000024,0.000020,0.000021,0.002494,0.002486,0.002477
1.450000,-49.655643,-9.644515,-24.671715,0.015164,-0.006302,-0.123157,0.999563,0.009486,0.021072,0.018431,0.190804,0.509135,-0.000132,-0.000913,0.000617,0.001856,0.001239,-0.003897,-49.850856,-9.989353,-25.012872,0.302500,0.022533,-0.026699,0.999955,0.002523,0.005047,0.007570,0.188225,0.511969,0.005007,-0.002985,0.002005,0.020191,-0.010135,0.014954,0.001194,0.002027,0.002546,9.523229,9.168681,9.224940,0.557533,0.181177,0.110217,0.000004,0.000003,0.000024,0.000020,0.000021,0.002493,0.002485,0.002475
1.500000,-49.475365,-9.530823,-24.698931,0.258361,0.177498,-0.138835,0.999594,0.016384,0.013417,0.019087,0.189027,0.511604,-0.000343,-0.000854,0.000763,0.000078,-0.000063,0.000279,-49.835230,-9.988185,-25.014254,0.322658,0.024203,-0.028584,0.999949,0.002692,0.005383,0.008075,0.187457,0.512844,0.005009,-0.002989,0.002007,0.020190,-0.010137,0.014958,0.001072,0.001948,0.002551,9.566956,9.177832,9.240762,0.566247,0.175064,0.110520,0.000004,0.000003,0.000024,0.000020,0.000021,0.002492,0.002484,0.002471
1.550000,-49.541927,-9.534940,-24.701106,0.160879,0.182606,-0.137146,0.999519,0.016632,0.017396,0.019570,0.188246,0.511758,-0.000342,-0.000923,0.000778,0.000867,-0.000045,-0.001335,-49.818581,-9.986932,-25.015732,0.343360,0.025941,-0.030534,0.999943,0.002864,0.005729,0.008593,0.186671,0.513752,0.005010,-0.002990,0.002004,0.020206,-0.010148,0.014923,0.001018,0.001908,0.002553,9.616295,9.190043,9.257229,0.582568,0.177048,0.110908,0.000004,0.000003,0.000024,0.000020,0.000021,0.002492,0.002484,0.002469
1.600000,-49.492005,-9.530658,-24.709919,0.231295,0.182200,-0.139049,0.999542,0.016206,0.015595,0.020261,0.187317,0.512733,-0.000310,-0.000872,0.000742,0.000434,0.000116,-0.000511,-49.800885,-9.985590,-25.017309,0.364593,0.027747,-0.032548,0.999935,0.003042,0.006084,0.009125,0.185866,0.514693,0.005009,-0.002991,0.002004,0.020223,-0.010121,0.014908,0.000964,0.001866,0.002557,9.667832,9.202624,9.274272,0.598226,0.178669,0.111292,0.000004,0.000003,0.000024,0.000020,0.000021,0.002491,0.002483,0.002466
1.650000,-49.505626,-9.561896,-24.720605,0.241464,0.132228,-0.143549,0.999558,0.013806,0.016047,0.020862,0.186754,0.513721,-0.000197,-0.000862,0.000649,0.000477,0.000612,-0.000742,-49.782114,-9.984156,-25.018988,0.386343,0.029621,-0.034627,0.999927,0.003224,0.006447,0.009671,0.185044,0.515665,0.005010,-0.002991,0.002003,0.020213,-0.010082,0.014918,0.000861,0.001772,0.002560,9.712783,9.212239,9.291889,0.600367,0.171378,0.111749,0.000004,0.000003,0.000024,0.000020,0.000021,0.002490,0.002482,0.002462
1.700000,-49.445620,-9.481488,-24.724384,0.271662,0.263991,-0.139647,0.999465,0.018651,0.016157,0.021487,0.184866,0.514894,-0.000396,-0.000890,0.000813,0.000362,-0.000242,-0.000233,-49.762242,-9.982627,-25.020773,0.408596,0.031564,-0.036770,0.999919,0.003409,0.006819,0.010228,0.184204,0.516670,0.005011,-0.002988,0.002004,0.020213,-0.010084,0.014938,0.000815,0.001726,0.002564,9.766212,9.225288,9.310081,0.613070,0.172254,0.112202,0.000004,0.000003,0.000024,0.000020,0.000021,0.002490,0.002482,0.002459
1.750000,-49.433104,-9.435204,-24.730658,0.267019,0.333164,-0.140577,0.999385,0.021049,0.017114,0.022214,0.183130,0.515869,-0.000482,-0.000922,0.000888,0.000460,-0.000626,-0.000291,-49.741246,-9.980998,-25.022666,0.431338,0.033576,-0.038977,0.999909,0.003600,0.007199,0.010799,0.183349,0.517708,0.005012,-0.002988,0.002003,0.020209,-0.010123,0.014937,0.000726,0.001625,0.002567,9.808935,9.235097,9.328793,0.610089,0.164700,0.112616,0.000004,0.000003,0.000024,0.000020,0.000021,0.002488,0.002481,0.002454
1.800000,-49.388245,-9.375701,-24.734673,0.280048,0.416333,-0.140992,0.999306,0.023697,0.017572,0.022735,0.181395,0.516790,-0.000605,-0.000950,0.000990,0.000453,-0.001088,-0.000158,-49.719100,-9.979268,-25.024671,0.454555,0.035659,-0.041247,0.999899,0.003794,0.007587,0.011381,0.182477,0.518777,0.005011,-0.002986,0.002007,0.020208,-0.010120,0.014923,0.000687,0.001577,0.002571,9.862926,9.248434,9.348084,0.620097,0.165016,0.113065,0.000004,0.000003,0.000024,0.000020,0.000021,0.002488,0.002480,0.002452
1.850000,-49.449049,-9.368436,-24.748489,0.205051,0.426503,-0.150582,0.999238,0.023880,0.020412,0.023171,0.180172,0.517161,-0.000595,-0.001052,0.000999,0.000991,-0.001117,-0.001202,-49.695783,-9.977431,-25.026792,0.478231,0.037811,-0.043580,0.999888,0.003991,0.007983,0.011974,0.181591,0.519879,0.005009,-0.002984,0.002005,0.020199,-0.010124,0.014928,0.000612,0.001474,0.002574,9.901155,9.258224,9.367797,0.612575,0.157399,0.113468,0.000004,0.000003,0.000024,0.000020,0.000021,0.002487,0.002480,0.002447
1.900000,-49.313830,-9.276293,-24.744084,0.292700,0.543398,-0.146106,0.999168,0.027361,0.018777,0.023723,0.178362,0.518491,-0.000783,-0.001006,0.001133,0.000513,-0.001664,-0.000170,-49.671270,-9.975485,-25.029030,0.502352,0.040035,-0.045976,0.999877,0.004193,0.008386,0.012579,0.180690,0.521013,0.005007,-0.002979,0.002007,0.020197,-0.010118,0.014963,0.000579,0.001426,0.002578,9.954825,9.271776,9.388156,0.619961,0.157264,0.113899,0.000004,0.000003,0.000024,0.000020,0.000021,0.002486,0.002479,0.002445
1.950000,-49.011696,-9.193961,-24.723634,0.618383,0.611015,-0.133108,0.999228,0.028441,0.010672,0.024899,0.177078,0.521048,-0.000858,-0.000650,0.001125,-0.001270,-0.001587,0.003271,-49.645540,-9.973427,-25.031390,0.526902,0.042329,-0.048434,0.999865,0.004398,0.008797,0.013195,0.179776,0.522179,0.005006,-0.002976,0.002006,0.020207,-0.010114,0.014938,0.000546,0.001379,0.002583,10.008658,9.285496,9.409057,0.626286,0.156882,0.114377,0.000004,0.000003,0.000024,0.000020,0.000021,0.002485,0.002479,0.002443
2.000000,-48.426596,-11.779545,-25.030257,0.543783,0.579537,-0.144690,0.999173,0.028239,0.013667,0.025868,0.175606,0.521483,-0.000568,-0.000661,0.000568,-0.000681,-0.001612,0.002195,-49.618573,-9.971251,-25.033875,0.551866,0.044695,-0.050954,0.999851,0.004607,0.009215,0.013822,0.178848,0.523377,0.005009,-0.002972,0.002008,0.020166,-0.010124,0.014961,0.000486,0.001236,0.002585,0.909811,0.902992,0.904134,0.554354,0.144582,0.105390,0.000004,0.000003,0.000023,0.000019,0.000020,0.002484,0.002479,0.002434
2.050000,-48.414453,-11.758951,-25.038811,0.495482,0.535920,-0.153476,0.999172,0.026442,0.015651,0.026673,0.174552,0.521977,-0.000416,-0.000708,0.000471,-0.000265,-0.001274,0.001299,-49.590347,-9.968956,-25.036487,0.577228,0.047132,-0.053535,0.999837,0.004819,0.009639,0.014458,0.177909,0.524608,0.005012,-0.002968,0.002004,0.020182,-0.010155,0.014966,0.000461,0.001191,0.002588,0.917747,0.905037,0.906458,0.558136,0.144124,0.105854,0.000004,0.000003,0.000023,0.000019,0.000020,0.002483,0.002478,0.002431
2.100000,-48.348988,-11.734928,-25.044000,0.750887,0.527579,-0.145088,0.999245,0.025183,0.009867,0.027889,0.174233,0.524341,-0.000334,-0.000376,0.000357,-0.001455,-0.000779,0.003548,-49.560843,-9.966537,-25.039229,0.602970,0.049640,-0.056176,0.999823,0.005035,0.010070,0.015104,0.176958,0.525869,0.005014,-0.002963,0.002006,0.020142,-0.010131,0.014963,0.000412,0.001099,0.002593,0.927285,0.907490,0.909307,0.543032,0.137153,0.106270,0.000003,0.000003,0.000023,0.000019,0.000020,0.002482,0.002478,0.002427
2.150000,-48.309487,-11.714772,-25.051657,0.794705,0.517545,-0.150763,0.999239,0.024435,0.009627,0.028842,0.173130,0.525451,-0.000251,-0.000332,0.000294,-0.001522,-0.000563,0.003634,-49.530044,-9.963991,-25.042105,0.629078,0.052220,-0.058876,0.999807,0.005253,0.010507,0.015760,0.175996,0.527163,0.005012,-0.002965,0.002007,0.020098,-0.010126,0.014964,0.000392,0.001055,0.002596,0.939424,0.910574,0.912691,0.544198,0.136513,0.106753,0.000004,0.000003,0.000023,0.000019,0.000020,0.002482,0.002478,0.002426
2.200000,-48.151048,-11.698797,-25.051016,1.256614,0.480788,-0.132364,0.999277,0.021984,-0.000927,0.031005,0.173549,0.528571,-0.000039,0.000316,0.000047,-0.003513,0.000306,0.007088,-49.497930,-9.961314,-25.045118,0.655535,0.054870,-0.061635,0.999790,0.005475,0.010950,0.016424,0.175024,0.528488,0.005014,-0.002966,0.002007,0.020134,-0.010141,0.014968,0.000351,0.000966,0.002600,0.951754,0.913767,0.916592,0.525130,0.129981,0.107144,0.000003,0.000003,0.000023,0.000019,0.000020,0.002481,0.002477,0.002423
2.250000,-48.029629,-11.622005,-25.050128,1.426256,0.674541,-0.112151,0.999151,0.027297,-0.003595,0.030650,0.170918,0.530788,-0.000479,0.000410,0.000325,-0.004210,-0.000501,0.008452,-49.464485,-9.958502,-25.048270,0.682323,0.057592,-0.064453,0.999773,0.005699,0.011398,0.017097,0.174043,0.529844,0.005016,-0.002964,0.002007,0.020111,-0.010143,0.014981,0.000335,0.000925,0.002603,0.966915,0.917674,0.921035,0.522817,0.129196,0.107648,0.000003,0.000003,0.000023,0.000019,0.000020,0.002481,0.002477,0.002421
2.300000,-48.003520,-11.655668,-25.063496,1.388654,0.498600,-0.129395,0.999216,0.021689,-0.001616,0.033075,0.171363,0.531762,0.000050,0.000401,-0.000027,-0.003742,0.000488,0.007487,-49.429692,-9.955553,-25.051564,0.709426,0.060384,-0.067327,0.999754,0.005926,0.011852,0.017778,0.173053,0.531232,0.005014,-0.002968,0.002002,0.020135,-0.010125,0.014993,0.000320,0.000883,0.002607,0.983406,0.921990,0.926009,0.519048,0.128347,0.108138,0.000004,0.000004,0.000023,0.000019,0.000020,0.002480,0.002477,0.002420
2.350000,-47.980878,-11.669471,-25.076578,1.333059,0.417728,-0.143367,0.999214,0.019171,0.000856,0.034682,0.170961,0.532879,0.000320,0.000315,-0.000190,-0.003304,0.000922,0.006710,-49.393537,-9.952463,-25.055003,0.736826,0.063246,-0.070257,0.999735,0.006156,0.012311,0.018467,0.172055,0.532650,0.005013,-0.002967,0.002004,0.020111,-0.010161,0.015020,0.000291,0.000799,0.002607,0.996782,0.925952,0.931459,0.493257,0.122385,0.108388,0.000003,0.000003,0.000023,0.000019,0.000020,0.002480,0.002477,0.002419
2.400000,-47.937820,-11.668403,-25.087397,1.328018,0.386778,-0.153931,0.999187,0.018191,0.002191,0.035917,0.170080,0.534182,0.000448,0.000270,-0.000266,-0.003107,0.001123,0.006377,-49.356005,-9.949228,-25.058591,0.764506,0.066178,-0.073242,0.999714,0.006387,0.012775,0.019162,0.171050,0.534099,0.005009,-0.002966,0.002004,0.020113,-0.010151,0.015006,0.000279,0.000762,0.002609,1.014597,0.930891,0.937482,0.487778,0.121703,0.108829,0.000003,0.000003,0.000023,0.000019,0.000020,0.002479,0.002477,0.002418
2.450000,-47.841932,-11.670721,-25.093235,1.425854,0.352499,-0.154565,0.999151,0.016882,0.001308,0.037554,0.169437,0.536141,0.000621,0.000374,-0.000389,-0.003285,0.001428,0.006477,-49.317082,-9.945844,-25.062329,0.792448,0.069179,-0.076281,0.999693,0.006622,0.013243,0.019865,0.170039,0.535579,0.005012,-0.002965,0.002005,0.020134,-0.010136,0.015039,0.000255,0.000689,0.002609,1.027490,0.935250,0.943956,0.462064,0.116576,0.109040,0.000003,0.000003,0.000023,0.000019,0.000020,0.002479,0.002477,0.002418
2.500000,-47.697769,-11.693103,-25.094467,1.595471,0.278043,-0.146145,0.999100,0.014431,-0.000966,0.039881,0.169522,0.538372,0.000962,0.000585,-0.000617,-0.003668,0.001942,0.006591,-49.276756,-9.942309,-25.066220,0.820635,0.072248,-0.079372,0.999671,0.006858,0.013716,0.020574,0.169022,0.537089,0.005014,-0.002965,0.002002,0.020128,-0.010147,0.015067,0.000246,0.000658,0.002612,1.046087,0.940760,0.951031,0.456037,0.116083,0.109485,0.000003,0.000003,0.000023,0.000019,0.000020,0.002478,0.002476,0.002417
2.550000,-47.636633,-11.689169,-25.104251,1.607263,0.270256,-0.152036,0.999061,0.014311,0.000074,0.040889,0.168471,0.539847,0.001018,0.000545,-0.000642,-0.003550,0.002001,0.006395,-49.235015,-9.938618,-25.070267,0.849049,0.075384,-0.082514,0.999647,0.007096,0.014192,0.021288,0.168000,0.538629,0.005012,-0.002968,0.002002,0.020115,-0.010136,0.015091,0.000228,0.000597,0.002612,1.058048,0.945516,0.958529,0.431515,0.111749,0.109683,0.000003,0.000003,0.000023,0.000019,0.000020,0.002478,0.002476,0.002417
2.600000,-47.789245,-11.707712,-25.140967,1.303232,0.232968,-0.195836,0.999007,0.013947,0.007436,0.041652,0.166884,0.539781,0.000999,0.000033,-0.000582,-0.002452,0.002060,0.005483,-49.191848,-9.934769,-25.074472,0.877671,0.078587,-0.085706,0.999623,0.007336,0.014672,0.022008,0.166974,0.540199,0.005017,-0.002968,0.001999,0.020130,-0.010162,0.015079,0.000221,0.000571,0.002614,1.076978,0.951578,0.966659,0.425557,0.111500,0.110122,0.000003,0.000003,0.000023,0.000018,0.000020,0.002478,0.002476,0.002417
2.650000,-47.628488,-11.689482,-25.139223,1.472894,0.251307,-0.181636,0.998974,0.014282,0.005197,0.042650,0.166049,0.542078,0.001051,0.000232,-0.000627,-0.002863,0.002081,0.005780,-49.147245,-9.930758,-25.078838,0.906484,0.081856,-0.088947,0.999598,0.007578,0.015156,0.022733,0.165945,0.541798,0.005013,-0.002963,0.002000,0.020121,-0.010197,0.015085,0.000215,0.000548,0.002617,1.096640,0.957973,0.975336,0.419896,0.111289,0.110573,0.000003,0.000003,0.000023,0.000018,0.000020,0.002478,0.002476,0.002416
2.700000,-47.489832,-11.647943,-25.140328,1.600309,0.307167,-0.171348,0.998947,0.015583,0.003977,0.042963,0.164811,0.544792,0.000928,0.000364,-0.000580,-0.003144,0.001917,0.006166,-49.101196,-9.926582,-25.083367,0.935470,0.085188,-0.092234,0.999572,0.007821,0.015642,0.023463,0.164913,0.543426,0.005014,-0.002960,0.001998,0.020118,-0.010215,0.015094,0.000201,0.000502,0.002619,1.108172,0.963370,0.984426,0.398843,0.107785,0.110834,0.000003,0.000003,0.000023,0.000018,0.000020,0.002477,0.002476,0.002416
2.750000,-47.452802,-11.705636,-25.154576,1.574393,0.208418,-0.182286,0.998875,0.013130,0.005822,0.045188,0.164780,0.546337,0.001343,0.000266,-0.000765,-0.002920,0.002376,0.005504,-49.053695,-9.922238,-25.088062,0.964609,0.088584,-0.095566,0.999545,0.008066,0.016131,0.024197,0.163880,0.545084,0.005016,-0.002957,0.001998,0.020128,-0.010194,0.015106,0.000196,0.000483,0.002622,1.128276,0.970299,0.994189,0.393921,0.107767,0.111319,0.000003,0.000003,0.000023,0.000018,0.000020,0.002477,0.002476,0.002416
2.800000,-47.354765,-11.662154,-25.161704,1.644890,0.265262,-0.184454,0.998840,0.014667,0.005596,0.045527,0.163087,0.548220,0.001160,0.000310,-0.000687,-0.003010,0.002181,0.005793,-49.004733,-9.917723,-25.092925,0.993884,0.092041,-0.098942,0.999516,0.008311,0.016623,0.024934,0.162845,0.546769,0.005018,-0.002954,0.001999,0.020162,-0.010221,0.015111,0.000185,0.000446,0.002624,1.139606,0.976117,1.004366,0.375565,0.104837,0.111645,0.000003,0.000003,0.000022,0.000018,0.000020,0.002477,0.002476,0.002416
2.850000,-47.289190,-11.653442,-25.173085,1.664631,0.268462,-0.188561,0.998794,0.014873,0.006335,0.046364,0.162121,0.549889,0.001171,0.000275,-0.000689,-0.002949,0.002205,0.005737,-48.954305,-9.913033,-25.097957,1.023276,0.095558,-0.102360,0.999487,0.008558,0.017116,0.025674,0.161810,0.548483,0.005019,-0.002955,0.001999,0.020156,-0.010216,0.015133,0.000182,0.000431,0.002629,1.160253,0.983579,1.015239,0.371373,0.104962,0.112172,0.000003,0.000003,0.000022,0.000018,0.000020,0.002477,0.002476,0.002415
2.900000,-47.325389,-11.691919,-25.196315,1.564004,0.212592,-0.206048,0.998715,0.013769,0.009408,0.047852,0.161482,0.551060,0.001375,0.000033,-0.000750,-0.002532,0.002464,0.005225,-48.902404,-9.908166,-25.103161,1.052767,0.099133,-0.105817,0.999457,0.008806,0.017612,0.026417,0.160775,0.550225,0.005016,-0.002955,0.002001,0.020177,-0.010252,0.015149,0.000172,0.000401,0.002632,1.171835,0.989818,1.026542,0.355527,0.102428,0.112563,0.000003,0.000003,0.000022,0.000018,0.000020,0.002477,0.002476,0.002415
2.950000,-47.281907,-11.686529,-25.210782,1.565383,0.216753,-0.212786,0.998657,0.014061,0.010494,0.048741,0.160483,0.552700,0.001370,-0.000036,-0.000745,-0.002420,0.002490,0.005153,-48.849027,-9.903119,-25.108539,1.082337,0.102765,-0.109313,0.999426,0.009054,0.018108,0.027163,0.159742,0.551994,0.005019,-0.002954,0.002003,0.020161,-0.010240,0.015197,0.000170,0.000389,0.002637,1.193344,0.997810,1.038557,0.352269,0.102680,0.113139,0.000003,0.000003,0.000022,0.000018,0.000020,0.002477,0.002476,0.002415
3.000000,-47.099526,-11.681486,-25.209188,1.706567,0.214786,-0.201486,0.998640,0.013840,0.009048,0.049444,0.159970,0.555077,0.001522,0.000154,-0.000803,-0.002711,0.002515,0.005184,-48.794169,-9.897889,-25.114093,1.111969,0.106451,-0.112844,0.999394,0.009303,0.018606,0.027910,0.158710,0.553790,0.005017,-0.002952,0.002003,0.020157,-0.010279,0.015238,0.000168,0.000379,0.002642,1.215546,1.006116,1.051154,0.349226,0.102954,0.113736,0.000003,0.000003,0.000022,0.000018,0.000020,0.002477,0.002476,0.002415
3.050000,-47.109055,-11.624364,-25.232095,1.661763,0.283874,-0.212505,0.998573,0.015578,0.010769,0.049936,0.157996,0.556720,0.001108,-0.000013,-0.000674,-0.002502,0.002333,0.005545,-48.737829,-9.892473,-25.119824,1.141643,0.110191,-0.116409,0.999361,0.009553,0.019105,0.028658,0.157682,0.555613,0.005015,-0.002952,0.002003,0.020166,-0.010283,0.015212,0.000161,0.000356,0.002647,1.228258,1.013004,1.064215,0.336326,0.100816,0.114240,0.000003,0.000003,0.000022,0.000018,0.000020,0.002476,0.002476,0.002415
3.100000,-47.146412,-11.595406,-25.256945,1.589697,0.315373,-0.230120,0.998481,0.016517,0.013090,0.050907,0.156112,0.558225,0.000875,-0.000236,-0.000601,-0.002196,0.002290,0.005603,-48.680004,-9.886869,-25.125735,1.171341,0.113980,-0.120006,0.999327,0.009802,0.019605,0.029407,0.156657,0.557462,0.005017,-0.002954,0.002008,0.020172,-0.010276,0.015221,0.000160,0.000348,0.002652,1.251290,1.021821,1.077989,0.333948,0.101197,0.114879,0.000003,0.000003,0.000022,0.000018,0.000020,0.002476,0.002476,0.002414
3.150000,-47.290342,-11.532095,-25.293975,1.428198,0.388543,-0.253223,0.998338,0.018773,0.016900,0.051809,0.153854,0.559447,0.000328,-0.000651,-0.000439,-0.001649,0.002131,0.005795,-48.620695,-9.881074,-25.131826,1.201044,0.117818,-0.123633,0.999292,0.010052,0.020104,0.030156,0.155636,0.559337,0.005015,-0.002954,0.002008,0.020151,-0.010260,0.015207,0.000154,0.000330,0.002658,1.265469,1.029080,1.092279,0.323225,0.099261,0.115464,0.000003,0.000003,0.000022,0.000018,0.000020,0.002476,0.002476,0.002414
3.200000,-47.135849,-11.487290,-25.300369,1.538279,0.425516,-0.251620,0.998315,0.019506,0.015923,0.052276,0.152766,0.561856,0.000259,-0.000478,-0.000431,-0.001915,0.002044,0.006084,-48.559900,-9.875086,-25.138098,1.230733,0.121701,-0.127287,0.999257,0.010302,0.020604,0.030906,0.154620,0.561238,0.005017,-0.002953,0.002007,0.020173,-0.010257,0.015222,0.000153,0.000324,0.002664,1.290200,1.038365,1.107283,0.321792,0.099646,0.116159,0.000003,0.000003,0.000022,0.000018,0.000020,0.002476,0.002475,0.002414
3.250000,-47.184051,-11.577795,-25.318940,1.449317,0.326424,-0.261715,0.998244,0.017510,0.018701,0.053405,0.152575,0.563103,0.000853,-0.000752,-0.000535,-0.001382,0.002399,0.005152,-48.497622,-9.868903,-25.144555,1.260391,0.125628,-0.130966,0.999220,0.010552,0.021103,0.031655,0.153609,0.563163,0.005017,-0.002954,0.002004,0.020204,-0.010244,0.015208,0.000148,0.000309,0.002670,1.306972,1.045932,1.122858,0.313387,0.097829,0.116834,0.000003,0.000003,0.000022,0.000018,0.000020,0.002476,0.002475,0.002414
3.300000,-47.191465,-11.690562,-25.331383,1.397184,0.206707,-0.264112,0.998208,0.014879,0.020763,0.054118,0.152373,0.564473,0.001629,-0.000943,-0.000653,-0.000891,0.002775,0.004107,-48.433862,-9.862523,-25.151195,1.289998,0.129596,-0.134667,0.999183,0.010801,0.021601,0.032402,0.152606,0.565113,0.005017,-0.002953,0.002004,0.020252,-0.010274,0.015216,0.000148,0.000304,0.002676,1.333649,1.055663,1.139119,0.312725,0.098197,0.117579,0.000003,0.000003,0.000021,0.000018,0.000020,0.002476,0.002475,0.002414
3.350000,-47.061721,-11.690237,-25.340570,1.478768,0.203315,-0.262449,0.998188,0.014769,0.020429,0.054642,0.151609,0.566896,0.001767,-0.000815,-0.000676,-0.001045,0.002806,0.004206,-48.368623,-9.855943,-25.158022,1.319535,0.133601,-0.138388,0.999145,0.011049,0.022099,0.033148,0.151609,0.567087,0.005016,-0.002953,0.002004,0.020242,-0.010303,0.015214,0.000148,0.000300,0.002682,1.361429,1.065683,1.156012,0.312341,0.098594,0.118344,0.000003,0.000003,0.000021,0.000018,0.000020,0.002476,0.002475,0.002413
3.400000,-47.024518,-11.681862,-25.354460,1.479729,0.212223,-0.265506,0.998114,0.015056,0.021308,0.055559,0.150508,0.568492,0.001736,-0.000911,-0.000670,-0.000910,0.002812,0.004041,-48.301910,-9.849162,-25.165034,1.348985,0.137642,-0.142127,0.999106,0.011297,0.022595,0.033892,0.150620,0.569084,0.005014,-0.002954,0.002007,0.020217,-0.010292,0.015251,0.000144,0.000289,0.002687,1.382048,1.073783,1.173520,0.306290,0.096884,0.119111,0.000003,0.000003,0.000021,0.000018,0.000020,0.002475,0.002475,0.002413
3.450000,-46.880436,-11.714201,-25.362486,1.564784,0.178871,-0.262963,0.998137,0.014296,0.020849,0.055528,0.150344,0.570635,0.002117,-0.000757,-0.000708,-0.001027,0.002915,0.003997,-48.233727,-9.842178,-25.172235,1.378329,0.141715,-0.145881,0.999067,0.011545,0.023089,0.034634,0.149641,0.571104,0.005021,-0.002953,0.002011,0.020196,-0.010276,0.015237,0.000144,0.000286,0.002693,1.411856,1.084257,1.191690,0.306479,0.097290,0.119912,0.000003,0.000003,0.000021,0.000018,0.000020,0.002475,0.002475,0.002413
3.500000,-46.861041,-11.743630,-25.374978,1.546186,0.152355,-0.267419,0.998074,0.014010,0.022172,0.056212,0.149754,0.572240,0.002301,-0.000899,-0.000722,-0.000759,0.003003,0.003537,-48.164079,-9.834990,-25.179623,1.407548,0.145818,-0.149646,0.999026,0.011791,0.023582,0.035373,0.148670,0.573147,0.005019,-0.002955,0.002010,0.020201,-0.010224,0.015230,0.000141,0.000277,0.002696,1.435039,1.092697,1.210485,0.301739,0.095660,0.120720,0.000003,0.000002,0.000021,0.000017,0.000020,0.002475,0.002475,0.002412
3.550000,-46.758122,-11.788769,-25.383522,1.588123,0.105958,-0.268302,0.998085,0.013237,0.022382,0.056133,0.149595,0.574180,0.002702,-0.000851,-0.000743,-0.000703,0.003110,0.003264,-48.092974,-9.827596,-25.187199,1.436624,0.149946,-0.153422,0.998985,0.012036,0.024072,0.036108,0.147710,0.575211,0.005020,-0.002952,0.002008,0.020221,-0.010246,0.015242,0.000142,0.000275,0.002701,1.466946,1.103616,1.229939,0.302425,0.096045,0.121549,0.000003,0.000003,0.000021,0.000017,0.000020,0.002475,0.002475,0.002412
3.600000,-46.624595,-11.675455,-25.408539,1.670693,0.208489,-0.277203,0.997953,0.015422,0.021694,0.058155,0.147402,0.576661,0.002027,-0.000677,-0.000716,-0.001173,0.002893,0.004281,-48.020419,-9.819995,-25.194965,1.465540,0.154097,-0.157204,0.998944,0.012280,0.024560,0.036840,0.146760,0.577297,0.005016,-0.002951,0.002012,0.020222,-0.010225,0.015277,0.000139,0.000268,0.002703,1.492578,1.112380,1.250011,0.298654,0.094455,0.122383,0.000002,0.000002,0.000020,0.000017,0.000020,0.002475,0.002475,0.002411
3.650000,-46.416794,-11.618863,-25.430477,1.799566,0.255659,-0.282932,0.997923,0.016490,0.020433,0.058821,0.146582,0.579663,0.001867,-0.000333,-0.000713,-0.001724,0.002796,0.005140,-47.946423,-9.812186,-25.202920,1.494277,0.158268,-0.160989,0.998902,0.012522,0.025045,0.037567,0.145822,0.579404,0.005018,-0.002958,0.002012,0.020220,-0.010244,0.015265,0.000140,0.000266,0.002707,1.526411,1.123700,1.270760,0.299588,0.094835,0.123236,0.000003,0.000002,0.000020,0.000017,0.000020,0.002475,0.002475,0.002411
3.700000,-46.330468,-11.704664,-25.433921,1.823783,0.180953,-0.279619,0.997964,0.015152,0.021142,0.058243,0.146795,0.581491,0.002555,-0.000375,-0.000728,-0.001431,0.002954,0.004472,-47.870995,-9.804168,-25.211064,1.522817,0.162455,-0.164776,0.998859,0.012763,0.025526,0.038289,0.144896,0.581531,0.005017,-0.002959,0.002014,0.020175,-0.010208,0.015277,0.000140,0.000264,0.002711,1.561113,1.135258,1.292170,0.300509,0.095246,0.124101,0.000003,0.000003,0.000020,0.000017,0.000020,0.002475,0.002475,0.002411
3.750000,-46.540912,-11.687878,-25.436814,1.634292,0.206258,-0.285949,0.997689,0.015906,0.025327,0.061003,0.144585,0.582497,0.002099,-0.001193,-0.000719,-0.000468,0.002976,0.003465,-47.794145,-9.795940,-25.219397,1.551142,0.166655,-0.168561,0.998816,0.013002,0.026004,0.039006,0.143983,0.583678,0.005019,-0.002960,0.002012,0.020176,-0.010182,0.015308,0.000138,0.000258,0.002713,1.589038,1.144355,1.314184,0.297253,0.093685,0.124969,0.000003,0.000002,0.000020,0.000017,0.000020,0.002474,0.002475,0.002410
3.800000,-46.363101,-11.578384,-25.468317,1.743537,0.296644,-0.294243,0.997569,0.017750,0.024400,0.062807,0.142748,0.585538,0.001526,-0.000895,-0.000717,-0.001078,0.002841,0.004405,-47.715885,-9.787502,-25.227920,1.579236,0.170863,-0.172341,0.998772,0.013239,0.026479,0.039718,0.143083,0.585844,0.005017,-0.002959,0.002012,0.020163,-0.010159,0.015347,0.000139,0.000257,0.002717,1.625619,1.156267,1.336910,0.298354,0.094053,0.125856,0.000003,0.000003,0.000020,0.000017,0.000020,0.002474,0.002475,0.002410
3.850000,-46.423197,-11.506351,-25.479405,1.670325,0.357415,-0.297660,0.997337,0.019211,0.026535,0.065165,0.141089,0.587382,0.000914,-0.001306,-0.000721,-0.000768,0.002779,0.004250,-47.636226,-9.778854,-25.236631,1.607080,0.175077,-0.176113,0.998728,0.013474,0.026949,0.040423,0.142198,0.588028,0.005017,-0.002960,0.002013,0.020139,-0.010172,0.015358,0.000138,0.000252,0.002717,1.655826,1.165530,1.360211,0.295610,0.092466,0.126742,0.000002,0.000002,0.000019,0.000017,0.000020,0.002474,0.002475,0.002409
3.900000,-46.362143,-11.555938,-25.484736,1.679770,0.317415,-0.299347,0.997343,0.018238,0.027323,0.065028,0.140354,0.589368,0.001371,-0.001386,-0.000714,-0.000474,0.002840,0.003813,-47.555181,-9.769995,-25.245531,1.634657,0.179293,-0.179874,0.998684,0.013707,0.027415,0.041122,0.141328,0.590230,0.005016,-0.002959,0.002013,0.020172,-0.010178,0.015349,0.000139,0.000251,0.002722,1.694468,1.177728,1.384266,0.296932,0.092810,0.127651,0.000003,0.000002,0.000019,0.000017,0.000020,0.002474,0.002475,0.002409
3.950000,-46.279638,-11.485630,-25.504699,1.708964,0.370945,-0.304335,0.997202,0.019379,0.027723,0.066658,0.138950,0.591798,0.000961,-0.001397,-0.000727,-0.000646,0.002796,0.004084,-47.472765,-9.760925,-25.254618,1.661951,0.183506,-0.183621,0.998639,0.013938,0.027876,0.041814,0.140473,0.592450,0.005014,-0.002960,0.002010,0.020145,-0.010178,0.015368,0.000137,0.000246,0.002722,1.727135,1.187091,1.408848,0.294688,0.091217,0.128551,0.000002,0.000002,0.000019,0.000017,0.000020,0.002474,0.002475,0.002409
4.000000,-47.386857,-10.622037,-25.809228,1.443369,0.483685,-0.449062,0.997039,0.021206,0.029708,0.067690,0.137214,0.594230,-0.000278,-0.001687,0.000868,-0.001042,0.003284,0.018167,-47.388991,-9.751644,-25.263893,1.688944,0.187714,-0.187351,0.998594,0.014166,0.028332,0.042499,0.139634,0.594686,0.005017,-0.002962,0.002008,0.020144,-0.010177,0.015366,0.000137,0.000234,0.002722,0.626544,0.543399,0.575486,0.203038,0.077504,0.087314,0.000002,0.000002,0.000018,0.000015,0.000019,0.002473,0.002475,0.002137
4.050000,-47.337184,-10.672201,-25.814466,1.432211,0.386691,-0.436378,0.997146,0.019262,0.030938,0.066124,0.137302,0.596015,0.000723,-0.001831,0.001026,-0.000265,0.003346,0.016594,-47.303876,-9.742153,-25.273353,1.715620,0.191911,-0.191060,0.998549,0.014392,0.028783,0.043175,0.138812,0.596938,0.005015,-0.002960,0.002009,0.020119,-0.010188,0.015386,0.000138,0.000234,0.002725,0.642440,0.549777,0.584795,0.205215,0.077889,0.087856,0.000003,0.000002,0.000018,0.000015,0.000019,0.002473,0.002475,0.002136
4.100000,-47.270322,-10.706275,-25.828586,1.449195,0.321349,-0.432766,0.997220,0.017991,0.031630,0.065029,0.137101,0.598196,0.001448,-0.001842,0.001156,0.000173,0.003408,0.015839,-47.217435,-9.732453,-25.282998,1.741963,0.196095,-0.194747,0.998504,0.014615,0.029229,0.043844,0.138008,0.599205,0.005016,-0.002960,0.002009,0.020124,-0.010186,0.015403,0.000138,0.000231,0.002723,0.658124,0.555625,0.594375,0.205516,0.076702,0.088315,0.000002,0.000002,0.000018,0.000015,0.000019,0.002473,0.002475,0.002134
4.150000,-47.193039,-10.639500,-25.857123,1.480793,0.399879,-0.442187,0.997003,0.019683,0.032051,0.067599,0.135502,0.601057,0.000771,-0.001842,0.001018,-0.000250,0.003358,0.016474,-47.129685,-9.722544,-25.292827,1.767955,0.200260,-0.198407,0.998458,0.014834,0.029669,0.044503,0.137222,0.601487,0.005017,-0.002964,0.002008,0.020117,-0.010171,0.015401,0.000139,0.000232,0.002725,0.675796,0.562438,0.604538,0.207913,0.077085,0.088874,0.000003,0.000002,0.000018,0.000014,0.000019,0.002473,0.002475,0.002133
4.200000,-47.045402,-10.597660,-25.908857,1.596466,0.436347,-0.467774,0.996979,0.020354,0.030827,0.068321,0.134693,0.604631,0.000680,-0.001363,0.001005,-0.001152,0.003516,0.018387,-47.040645,-9.712428,-25.302839,1.793582,0.204404,-0.202037,0.998413,0.015051,0.030103,0.045154,0.136454,0.603783,0.005018,-0.002968,0.002007,0.020109,-0.010170,0.015430,0.000138,0.000230,0.002721,0.693177,0.568575,0.614944,0.208501,0.075896,0.089347,0.000002,0.000002,0.000017,0.000014,0.000019,0.002472,0.002475,0.002131
4.250000,-46.990554,-10.554491,-25.924299,1.589842,0.475620,-0.466750,0.996811,0.021306,0.031726,0.070054,0.133372,0.606469,0.000337,-0.001551,0.000925,-0.001052,0.003424,0.018013,-46.950334,-9.702104,-25.313031,1.818828,0.208522,-0.205634,0.998368,0.015265,0.030530,0.045795,0.135705,0.606092,0.005017,-0.002969,0.002004,0.020136,-0.010159,0.015397,0.000140,0.000230,0.002722,0.712595,0.575785,0.625974,0.210984,0.076240,0.089929,0.000002,0.000002,0.000017,0.000014,0.000019,0.002472,0.002475,0.002130
4.300000,-46.992226,-10.534979,-25.915672,1.520801,0.484338,-0.448793,0.996650,0.021652,0.033893,0.071208,0.132199,0.607823,0.000166,-0.002089,0.000879,-0.000219,0.003180,0.016408,-46.858769,-9.691576,-25.323401,1.843676,0.212609,-0.209196,0.998322,0.015475,0.030951,0.046426,0.134976,0.608414,0.005018,-0.002964,0.002004,0.020111,-0.010159,0.015396,0.000140,0.000228,0.002716,0.731534,0.582162,0.637226,0.211638,0.075026,0.090427,0.000002,0.000002,0.000017,0.000014,0.000019,0.002472,0.002475,0.002129
4.350000,-46.934155,-10.561210,-25.928298,1.523647,0.436517,-0.448478,0.996734,0.020759,0.034646,0.069935,0.132150,0.610019,0.000757,-0.002153,0.001023,0.000329,0.003161,0.015775,-46.765973,-9.680844,-25.333949,1.868113,0.216662,-0.212718,0.998277,0.015682,0.031365,0.047047,0.134268,0.610747,0.005017,-0.002963,0.002003,0.020145,-0.010143,0.015337,0.000142,0.000229,0.002718,0.752713,0.589732,0.649131,0.214206,0.075326,0.091033,0.000002,0.000002,0.000017,0.000014,0.000018,0.002471,0.002475,0.002129
4.400000,-46.786765,-10.506336,-25.980469,1.618502,0.483238,-0.466586,0.996653,0.021767,0.033609,0.071269,0.131337,0.613030,0.000537,-0.001739,0.000968,-0.000573,0.003372,0.017111,-46.671965,-9.669910,-25.344673,1.892122,0.220676,-0.216198,0.998232,0.015886,0.031771,0.047657,0.133580,0.613092,0.005022,-0.002960,0.002005,0.020158,-0.010108,0.015333,0.000143,0.000230,0.002719,0.774856,0.597518,0.661483,0.216766,0.075602,0.091646,0.000003,0.000002,0.000017,0.000014,0.000018,0.002471,0.002475,0.002128
4.450000,-46.747970,-10.533948,-25.985155,1.601693,0.437780,-0.458746,0.996700,0.021027,0.034963,0.070180,0.131293,0.615549,0.001060,-0.001939,0.001101,0.000178,0.003262,0.016234,-46.576768,-9.658777,-25.355568,1.915690,0.224648,-0.219632,0.998187,0.016085,0.032171,0.048256,0.132914,0.615447,0.005021,-0.002957,0.002006,0.020138,-0.010085,0.015319,0.000143,0.000228,0.002712,0.796272,0.604208,0.673999,0.217530,0.074320,0.092171,0.000002,0.000002,0.000016,0.000014,0.000018,0.002471,0.002475,0.002127
4.500000,-46.577953,-10.501389,-26.045261,1.711576,0.456951,-0.484463,0.996715,0.021316,0.033654,0.070511,0.131032,0.618938,0.001165,-0.001390,0.001125,-0.000693,0.003575,0.017416,-46.480404,-9.647446,-25.366635,1.938801,0.228573,-0.223018,0.998143,0.016281,0.032563,0.048844,0.132270,0.617811,0.005022,-0.002958,0.002006,0.020152,-0.010064,0.015311,0.000144,0.000229,0.002714,0.820199,0.612307,0.687237,0.220164,0.074566,0.092806,0.000002,0.000002,0.000016,0.000014,0.000018,0.002470,0.002475,0.002127
4.550000,-46.445568,-10.446501,-26.088984,1.777260,0.497169,-0.497101,0.996599,0.022195,0.033185,0.072089,0.129773,0.621726,0.000910,-0.001149,0.001058,-0.001302,0.003724,0.018041,-46.382896,-9.635921,-25.377869,1.961443,0.232448,-0.226352,0.998099,0.016473,0.032947,0.049420,0.131648,0.620185,0.005025,-0.002954,0.002002,0.020096,-0.010060,0.015321,0.000143,0.000227,0.002709,0.843059,0.619145,0.700613,0.220842,0.073252,0.093357,0.000002,0.000002,0.000016,0.000014,0.000018,0.002470,0.002475,0.002126
4.600000,-46.399420,-10.439482,-26.096857,1.758859,0.492697,-0.491839,0.996553,0.022281,0.034200,0.072220,0.129261,0.623607,0.001009,-0.001384,0.001087,-0.000845,0.003576,0.017679,-46.284268,-9.624202,-25.389269,1.983601,0.236267,-0.229631,0.998055,0.016661,0.033323,0.049984,0.131049,0.622567,0.005025,-0.002952,0.002001,0.020134,-0.010049,0.015298,0.000145,0.000228,0.002711,0.868587,0.627521,0.714772,0.223378,0.073472,0.094021,0.000002,0.000002,0.000015,0.000014,0.000018,0.002470,0.002475,0.002126
4.650000,-46.359288,-10.480633,-26.102648,1.740446,0.439188,-0.485329,0.996625,0.021215,0.035184,0.071063,0.128904,0.625642,0.001648,-0.001578,0.001250,-0.000058,0.003416,0.017334,-46.184544,-9.612295,-25.400832,2.005261,0.240027,-0.232853,0.998012,0.016845,0.033690,0.050535,0.130474,0.624956,0.005028,-0.002954,0.002002,0.020163,-0.010014,0.015290,0.000145,0.000226,0.002707,0.892618,0.634465,0.729048,0.223853,0.072128,0.094611,0.000002,0.000002,0.000015,0.000013,0.000018,0.002469,0.002475,0.002126
4.700000,-46.180390,-10.421839,-26.161903,1.840246,0.483286,-0.506280,0.996544,0.022044,0.034174,0.072426,0.128144,0.629041,0.001467,-0.001101,0.001194,-0.000919,0.003731,0.017686,-46.083750,-9.600201,-25.412554,2.026411,0.243724,-0.236014,0.997969,0.017024,0.034049,0.051073,0.129922,0.627351,0.005025,-0.002955,0.001999,0.020161,-0.010008,0.015311,0.000146,0.000227,0.002711,0.919743,0.643087,0.744137,0.226325,0.072310,0.095304,0.000002,0.000002,0.000015,0.000013,0.000018,0.002469,0.002475,0.002126
4.750000,-46.112506,-10.441726,-26.178124,1.847283,0.453699,-0.508670,0.996578,0.021384,0.034667,0.071922,0.127642,0.631074,0.001893,-0.001184,0.001300,-0.000485,0.003647,0.017617,-45.981912,-9.587924,-25.424432,2.047038,0.247353,-0.239110,0.997927,0.017200,0.034399,0.051599,0.129394,0.629753,0.005024,-0.002953,0.001998,0.020151,-0.010008,0.015324,0.000148,0.000228,0.002714,0.947716,0.651873,0.759713,0.228788,0.072505,0.096012,0.000002,0.000002,0.000015,0.000013,0.000018,0.002469,0.002475,0.002126
4.800000,-45.821262,-10.450137,-26.274568,2.041543,0.426286,-0.543213,0.996735,0.020430,0.031708,0.071396,0.127932,0.634842,0.002724,-0.000080,0.001464,-0.001467,0.004280,0.017720,-45.879055,-9.575467,-25.436463,2.067129,0.250911,-0.242140,0.997886,0.017370,0.034740,0.052110,0.128892,0.632160,0.005026,-0.002957,0.002005,0.020150,-0.010017,0.015353,0.000146,0.000225,0.002715,0.973328,0.658951,0.775391,0.228893,0.071111,0.096660,0.000002,0.000002,0.000014,0.000013,0.000018,0.002468,0.002475,0.002126
4.850000,-45.718658,-10.475145,-26.301668,2.069116,0.391579,-0.545481,0.996777,0.019802,0.031844,0.070916,0.127996,0.637332,0.003222,-0.000029,0.001576,-0.001193,0.004271,0.017759,-45.775208,-9.562834,-25.448645,2.086672,0.254394,-0.245100,0.997845,0.017536,0.035072,0.052608,0.128414,0.634571,0.005031,-0.002958,0.002007,0.020155,-0.010004,0.015330,0.000147,0.000226,0.002721,1.002498,0.667937,0.791966,0.231089,0.071249,0.097409,0.000002,0.000002,0.000014,0.000013,0.000018,0.002468,0.002475,0.002126
4.900000,-45.690890,-10.532555,-26.306141,2.038206,0.332863,-0.541656,0.996834,0.018790,0.032822,0.069946,0.128356,0.638928,0.003854,-0.000324,0.001726,-0.000420,0.004048,0.018297,-45.670397,-9.550029,-25.460972,2.105656,0.257798,-0.247987,0.997805,0.017697,0.035395,0.053092,0.127962,0.636985,0.005029,-0.002956,0.002004,0.020143,-0.010033,0.015336,0.000146,0.000223,0.002723,1.028190,0.675056,0.808696,0.230645,0.069859,0.098120,0.000002,0.000002,0.000014,0.000013,0.000018,0.002468,0.002475,0.002126
4.950000,-45.578282,-10.530870,-26.335905,2.070338,0.326053,-0.545676,0.996811,0.018743,0.032896,0.070244,0.128066,0.641453,0.004037,-0.000263,0.001762,-0.000379,0.004068,0.018265,-45.564652,-9.537055,-25.473442,2.124068,0.261119,-0.250800,0.997766,0.017854,0.035707,0.053561,0.127536,0.639403,0.005029,-0.002957,0.002005,0.020084,-0.010047,0.015395,0.000147,0.000224,0.002730,1.058268,0.684229,0.826318,0.232571,0.069971,0.098911,0.000002,0.000002,0.000013,0.000013,0.000018,0.002467,0.002475,0.002126
5.000000,-45.528357,-10.560566,-26.348347,2.052219,0.294778,-0.542513,0.996812,0.018229,0.033702,0.069979,0.128299,0.643559,0.004392,-0.000475,0.001841,0.000047,0.003930,0.018896,-45.458000,-9.523918,-25.486051,2.141899,0.264353,-0.253533,0.997728,0.018005,0.036011,0.054016,0.127136,0.641822,0.005030,-0.002960,0.002004,0.020088,-0.010047,0.015391,0.000146,0.000221,0.002735,1.083931,0.691402,0.844118,0.231600,0.068554,0.099676,0.000002,0.000002,0.000013,0.000013,0.000018,0.002467,0.002475,0.002125
5.050000,-45.527199,-10.531689,-26.350587,1.997075,0.312103,-0.534960,0.996704,0.018871,0.035268,0.070576,0.127638,0.645623,0.004015,-0.000934,0.001785,0.000317,0.003733,0.019751,-45.350472,-9.510622,-25.498794,2.159136,0.267496,-0.256186,0.997691,0.018152,0.036304,0.054455,0.126763,0.644242,0.005030,-0.002958,0.002005,0.020079,-0.010051,0.015425,0.000147,0.000221,0.002742,1.114821,0.700750,0.862810,0.233263,0.068625,0.100505,0.000002,0.000002,0.000013,0.000012,0.000018,0.002467,0.002474,0.002125
5.100000,-45.480607,-10.517579,-26.364192,1.976272,0.316461,-0.531532,0.996630,0.019206,0.036237,0.071037,0.127216,0.648003,0.003911,-0.001164,0.001773,0.000493,0.003630,0.020253,-45.242097,-9.497170,-25.511668,2.175771,0.270546,-0.258756,0.997655,0.018293,0.036586,0.054880,0.126417,0.646663,0.005031,-0.002958,0.002000,0.020083,-0.010049,0.015458,0.000149,0.000222,0.002749,1.146395,0.710232,0.882038,0.234888,0.068682,0.101347,0.000002,0.000002,0.000012,0.000012,0.000018,0.002467,0.002474,0.002124
5.150000,-45.579847,-10.655507,-26.334825,1.862928,0.201230,-0.517380,0.996654,0.017446,0.038686,0.069857,0.128379,0.649324,0.005009,-0.001929,0.002019,0.001805,0.003147,0.022762,-45.132905,-9.483569,-25.524668,2.191792,0.273498,-0.261240,0.997620,0.018429,0.036859,0.055288,0.126098,0.649083,0.005033,-0.002957,0.002003,0.020091,-0.010030,0.015471,0.000148,0.000219,0.002754,1.172772,0.717521,0.901416,0.233568,0.067238,0.102166,0.000002,0.000002,0.000012,0.000012,0.000018,0.002467,0.002474,0.002123
5.200000,-45.562875,-10.702201,-26.338048,1.826497,0.159118,-0.513606,0.996640,0.016813,0.039801,0.069582,0.128822,0.651372,0.005404,-0.002230,0.002110,0.002283,0.002965,0.023763,-45.022928,-9.469822,-25.537791,2.207190,0.276349,-0.263635,0.997586,0.018560,0.037121,0.055681,0.125806,0.651502,0.005035,-0.002956,0.002001,0.020042,-0.010035,0.015475,0.000150,0.000219,0.002762,1.205652,0.727194,0.921697,0.235184,0.067269,0.103033,0.000002,0.000002,0.000012,0.000012,0.000018,0.002466,0.002474,0.002122
5.250000,-45.561135,-10.653374,-26.342978,1.773360,0.193741,-0.510837,0.996499,0.017829,0.041165,0.070547,0.127847,0.653363,0.004826,-0.002627,0.002005,0.002366,0.002865,0.024546,-44.912197,-9.455936,-25.551030,2.221957,0.279095,-0.265939,0.997553,0.018686,0.037372,0.056058,0.125543,0.653918,0.005034,-0.002957,0.002004,0.020068,-0.010029,0.015460,0.000148,0.000216,0.002768,1.233501,0.734668,0.942040,0.233994,0.065821,0.103867,0.000002,0.000002,0.000011,0.000012,0.000018,0.002466,0.002474,0.002120
5.300000,-45.440915,-10.609141,-26.380396,1.802042,0.221454,-0.518802,0.996431,0.018634,0.041132,0.071319,0.127500,0.656008,0.004558,-0.002499,0.001942,0.002130,0.002956,0.024069,-44.800743,-9.441914,-25.564383,2.236083,0.281734,-0.268150,0.997521,0.018806,0.037612,0.056418,0.125307,0.656332,0.005033,-0.002960,0.002003,0.020065,-0.010024,0.015465,0.000149,0.000216,0.002776,1.268067,0.744560,0.963351,0.235689,0.065822,0.104751,0.000002,0.000002,0.000011,0.000012,0.000018,0.002466,0.002474,0.002120
5.350000,-45.324004,-10.687831,-26.407577,1.835555,0.150973,-0.523003,0.996536,0.017071,0.040868,0.070391,0.128462,0.658245,0.005479,-0.002353,0.002150,0.002410,0.002863,0.024139,-44.688599,-9.427764,-25.577844,2.249559,0.284262,-0.270265,0.997491,0.018921,0.037842,0.056763,0.125100,0.658742,0.005034,-0.002959,0.002004,0.020080,-0.010032,0.015484,0.000147,0.000213,0.002782,1.297761,0.752236,0.984620,0.234696,0.064390,0.105593,0.000002,0.000002,0.000011,0.000012,0.000018,0.002466,0.002474,0.002118
5.400000,-45.271555,-10.674842,-26.422753,1.819745,0.154947,-0.524648,0.996469,0.017386,0.041583,0.070832,0.128322,0.660497,0.005344,-0.002523,0.002123,0.002498,0.002821,0.024548,-44.575798,-9.413490,-25.591408,2.262379,0.286677,-0.272284,0.997462,0.019030,0.038060,0.057090,0.124922,0.661147,0.005035,-0.002960,0.002006,0.020091,-0.010026,0.015485,0.000148,0.000213,0.002790,1.334046,0.762352,1.006970,0.236444,0.064379,0.106494,0.000002,0.000002,0.000010,0.000011,0.000018,0.002466,0.002474,0.002117
5.450000,-45.169886,-10.558852,-26.467040,1.832719,0.239126,-0.532620,0.996317,0.019300,0.041679,0.072406,0.127215,0.662913,0.004348,-0.002469,0.001882,0.002056,0.003020,0.023934,-44.462373,-9.399098,-25.605070,2.274533,0.288975,-0.274202,0.997434,0.019133,0.038267,0.057400,0.124772,0.663547,0.005035,-0.002963,0.002002,0.020105,-0.010058,0.015507,0.000149,0.000214,0.002798,1.371206,0.772606,1.029870,0.238165,0.064352,0.107405,0.000003,0.000002,0.000010,0.000011,0.000018,0.002466,0.002474,0.002116
5.500000,-45.015546,-10.477785,-26.523182,1.882755,0.292995,-0.543848,0.996242,0.020540,0.041310,0.073300,0.126913,0.665981,0.003819,-0.002194,0.001746,0.001645,0.003227,0.022867,-44.348356,-9.384595,-25.618826,2.286015,0.291153,-0.276019,0.997408,0.019231,0.038462,0.057693,0.124651,0.665941,0.005037,-0.002962,0.002001,0.020084,-0.010069,0.015557,0.000146,0.000211,0.002805,1.403042,0.780560,1.052631,0.237153,0.062924,0.108274,0.000002,0.000002,0.000010,0.000011,0.000018,0.002466,0.002474,0.002114
5.550000,-44.977517,-10.494552,-26.528684,1.857186,0.275318,-0.541586,0.996218,0.020212,0.041954,0.073353,0.126828,0.667586,0.003998,-0.002435,0.001796,0.001886,0.003101,0.023712,-44.233782,-9.369985,-25.632671,2.296819,0.293210,-0.277732,0.997383,0.019323,0.038646,0.057969,0.124559,0.668327,0.005040,-0.002958,0.002006,0.020080,-0.010102,0.015551,0.000147,0.000211,0.002813,1.441572,0.790984,1.076644,0.238796,0.062880,0.109211,0.000002,0.000002,0.000010,0.000011,0.000018,0.002465,0.002474,0.002113
5.600000,-45.043705,-10.378704,-26.522226,1.759878,0.361423,-0.531359,0.995985,0.022445,0.043728,0.074816,0.125294,0.668623,0.002753,-0.003085,0.001513,0.001851,0.003111,0.025281,-44.118686,-9.355276,-25.646598,2.306937,0.295142,-0.279341,0.997359,0.019409,0.038819,0.058228,0.124496,0.670706,0.005040,-0.002956,0.002000,0.020086,-0.010123,0.015508,0.000146,0.000208,0.002819,1.474353,0.799055,1.100491,0.237589,0.061444,0.110111,0.000002,0.000002,0.000009,0.000011,0.000018,0.002465,0.002474,0.002111
5.650000,-44.975772,-10.345714,-26.544576,1.750768,0.377609,-0.535052,0.995919,0.022894,0.044145,0.075319,0.124790,0.670816,0.002578,-0.003168,0.001473,0.001839,0.003118,0.025462,-44.003100,-9.340473,-25.660603,2.316363,0.296947,-0.280842,0.997338,0.019490,0.038979,0.058469,0.124463,0.673075,0.005042,-0.002958,0.002000,0.020142,-0.010109,0.015470,0.000146,0.000209,0.002828,1.514320,0.809620,1.125643,0.239181,0.061367,0.111073,0.000002,0.000002,0.000009,0.000011,0.000018,0.002465,0.002474,0.002109
5.700000,-44.818574,-10.352713,-26.591057,1.802145,0.359927,-0.545234,0.995975,0.022545,0.043400,0.075116,0.125607,0.673011,0.002948,-0.002876,0.001555,0.001805,0.003155,0.024668,-43.887061,-9.325583,-25.674680,2.325093,0.298624,-0.282235,0.997317,0.019564,0.039128,0.058692,0.124460,0.675436,0.005041,-0.002959,0.001998,0.020117,-0.010102,0.015481,0.000144,0.000205,0.002837,1.548684,0.817805,1.150530,0.238078,0.059955,0.111994,0.000002,0.000002,0.000009,0.000010,0.000018,0.002465,0.002474,0.002106
5.750000,-44.839731,-10.195058,-26.597699,1.726263,0.467232,-0.543186,0.995729,0.025451,0.044919,0.076542,0.124042,0.674805,0.001466,-0.003348,0.001197,0.001524,0.003330,0.025371,-43.770603,-9.310613,-25.688824,2.333120,0.300169,-0.283519,0.997298,0.019632,0.039265,0.058897,0.124485,0.677785,0.005037,-0.002957,0.001997,0.020147,-0.010092,0.015473,0.000145,0.000206,0.002844,1.590251,0.828516,1.176829,0.239626,0.059848,0.112978,0.000002,0.000002,0.000008,0.000010,0.000018,0.002465,0.002474,0.002105
5.800000,-44.592165,-10.234404,-26.674011,1.834165,0.419764,-0.558471,0.995854,0.024165,0.043253,0.076295,0.125022,0.677895,0.002340,-0.002667,0.001392,0.001495,0.003414,0.023523,-43.653761,-9.295568,-25.703030,2.340441,0.301581,-0.284691,0.997281,0.019695,0.039389,0.059084,0.124541,0.680124,0.005038,-0.002959,0.001998,0.020161,-0.010101,0.015472,0.000144,0.000206,0.002855,1.632727,0.839315,1.203725,0.241173,0.059730,0.113974,0.000003,0.000002,0.000008,0.000010,0.000018,0.002465,0.002474,0.002103
5.850000,-44.411491,-10.271349,-26.727428,1.895023,0.381381,-0.566724,0.995918,0.023080,0.042421,0.076258,0.125677,0.680833,0.003034,-0.002286,0.001550,0.001579,0.003404,0.022593,-43.536571,-9.280457,-25.717292,2.347050,0.302859,-0.285751,0.997266,0.019751,0.039502,0.059253,0.124626,0.682451,0.005038,-0.002962,0.001996,0.020129,-0.010102,0.015466,0.000141,0.000202,0.002864,1.668851,0.847612,1.230339,0.239862,0.058295,0.114937,0.000002,0.000002,0.000008,0.000010,0.000018,0.002465,0.002474,0.002100
5.900000,-44.209714,-10.238170,-26.792194,1.966400,0.389813,-0.576058,0.995935,0.023109,0.041258,0.076660,0.125779,0.683270,0.003120,-0.001858,0.001551,0.001444,0.003592,0.020903,-43.419068,-9.265285,-25.731603,2.352944,0.304001,-0.286697,0.997252,0.019801,0.039602,0.059404,0.124741,0.684764,0.005043,-0.002959,0.001996,0.020118,-0.010123,0.015479,0.000140,0.000202,0.002875,1.712358,0.858511,1.258519,0.241198,0.058150,0.115967,0.000002,0.000002,0.000008,0.000010,0.000018,0.002465,0.002474,0.002098
5.950000,-44.184238,-10.207439,-26.800527,1.925006,0.405014,-0.575436,0.995882,0.023608,0.042009,0.076794,0.125314,0.684925,0.002879,-0.002142,0.001509,0.001436,0.003522,0.022024,-43.301288,-9.250059,-25.745959,2.358120,0.305005,-0.287529,0.997239,0.019845,0.039691,0.059536,0.124886,0.687065,0.005038,-0.002959,0.001998,0.020143,-0.010099,0.015472,0.000138,0.000198,0.002884,1.748185,0.866874,1.286557,0.239452,0.056736,0.116982,0.000002,0.000002,0.000007,0.000010,0.000018,0.002465,0.002474,0.002093
6.000000,-44.223369,-9.729775,-27.073795,1.930068,0.485761,-0.633505,0.995954,0.024234,0.041099,0.076152,0.125107,0.688305,0.002455,-0.001439,0.002596,0.001419,0.004084,0.023238,-43.183268,-9.234787,-25.760354,2.362573,0.305871,-0.288246,0.997229,0.019883,0.039767,0.059650,0.125060,0.689350,0.005037,-0.002962,0.001999,0.020106,-0.010103,0.015454,0.000137,0.000181,0.002882,0.599469,0.460232,0.517663,0.133634,0.043797,0.057681,0.000002,0.000002,0.000007,0.000008,0.000016,0.002462,0.002473,0.001538
6.050000,-44.068294,-9.707861,-27.140125,1.992095,0.486816,-0.646846,0.995971,0.024031,0.040063,0.076541,0.125546,0.691167,0.002686,-0.001033,0.002657,0.001292,0.004326,0.022243,-43.065043,-9.219474,-25.774782,2.366303,0.306596,-0.288846,0.997220,0.019915,0.039830,0.059745,0.125264,0.691621,0.005037,-0.002965,0.001997,0.020082,-0.010105,0.015474,0.000134,0.000179,0.002892,0.613390,0.465601,0.526457,0.133412,0.042841,0.058021,0.000002,0.000002,0.000007,0.000008,0.000016,0.002462,0.002473,0.001537
6.100000,-43.898672,-9.618457,-27.221264,2.057070,0.559083,-0.666645,0.995939,0.025438,0.039056,0.077023,0.124497,0.694556,0.001960,-0.000597,0.002383,0.000793,0.004901,0.020391,-42.946650,-9.204129,-25.789237,2.369306,0.307181,-0.289330,0.997213,0.019941,0.039881,0.059822,0.125498,0.693875,0.005037,-0.002965,0.001999,0.020097,-0.010102,0.015460,0.000133,0.000179,0.002903,0.629376,0.471779,0.536263,0.134804,0.042847,0.058487,0.000002,0.000002,0.000006,0.000008,0.000016,0.002462,0.002473,0.001536
6.150000,-43.840277,-9.604355,-27.228903,2.023351,0.552764,-0.657488,0.995922,0.025467,0.039655,0.076930,0.124502,0.695996,0.002020,-0.000870,0.002421,0.000934,0.004663,0.021348,-42.828125,-9.188759,-25.803713,2.371580,0.307624,-0.289697,0.997207,0.019960,0.039920,0.059880,0.125762,0.696112,0.005039,-0.002961,0.001999,0.020095,-0.010094,0.015442,0.000133,0.000179,0.002912,0.645725,0.478042,0.546365,0.136108,0.042837,0.058970,0.000002,0.000002,0.000006,0.000007,0.000016,0.002462,0.002473,0.001535
6.200000,-43.801694,-9.623760,-27.224574,1.974220,0.513838,-0.645217,0.995930,0.024445,0.040580,0.076677,0.125082,0.697733,0.002474,-0.001224,0.002594,0.001239,0.004231,0.022995,-42.709504,-9.173369,-25.818205,2.373125,0.307925,-0.289946,0.997204,0.019973,0.039946,0.059920,0.126054,0.698332,0.005037,-0.002961,0.002002,0.020060,-0.010119,0.015432,0.000130,0.000176,0.002921,0.659868,0.483494,0.556053,0.135412,0.041858,0.059394,0.000002,0.000002,0.000006,0.000007,0.000015,0.002462,0.002473,0.001533
6.250000,-43.804878,-9.585236,-27.208916,1.883122,0.539339,-0.627748,0.995916,0.025397,0.042304,0.075613,0.124890,0.699346,0.002005,-0.001816,0.002499,0.001230,0.003896,0.024934,-42.590824,-9.157968,-25.832706,2.373939,0.308084,-0.290078,0.997202,0.019980,0.039960,0.059940,0.126377,0.700533,0.005039,-0.002964,0.002004,0.020093,-0.010098,0.015419,0.000131,0.000176,0.002930,0.676720,0.489874,0.566759,0.136532,0.041823,0.059914,0.000002,0.000002,0.000006,0.000007,0.000015,0.002462,0.002473,0.001531
6.300000,-43.594105,-9.605228,-27.290878,1.986217,0.489336,-0.643152,0.995922,0.023728,0.040307,0.077153,0.126334,0.702178,0.002957,-0.001140,0.002726,0.001429,0.004149,0.022988,-42.472122,-9.142563,-25.847210,2.374022,0.308100,-0.290091,0.997201,0.019981,0.039962,0.059943,0.126728,0.702716,0.005037,-0.002961,0.002003,0.020068,-0.010119,0.015406,0.000127,0.000173,0.002940,0.691012,0.495386,0.577061,0.135606,0.040844,0.060385,0.000002,0.000002,0.000006,0.000007,0.000015,0.002462,0.002472,0.001528
6.350000,-43.441211,-9.583655,-27.346828,2.030261,0.486378,-0.650591,0.995933,0.023562,0.039416,0.077515,0.127308,0.704619,0.003145,-0.000851,0.002754,0.001453,0.004328,0.021873,-42.353434,-9.127161,-25.861713,2.373374,0.307974,-0.289986,0.997203,0.019975,0.039951,0.059926,0.127109,0.704878,0.005034,-0.002963,0.002005,0.020059,-0.010145,0.015402,0.000126,0.000172,0.002950,0.708390,0.501881,0.588387,0.136608,0.040797,0.060936,0.000002,0.000002,0.000005,0.000007,0.000015,0.002462,0.002472,0.001526
6.400000,-43.510986,-9.559773,-27.306324,1.890460,0.496936,-0.630984,0.995957,0.024203,0.041709,0.075787,0.126674,0.705151,0.002685,-0.001735,0.002709,0.001370,0.003754,0.025582,-42.234797,-9.111768,-25.876207,2.371996,0.307705,-0.289764,0.997206,0.019964,0.039927,0.059891,0.127519,0.707020,0.005035,-0.002960,0.002002,0.020069,-0.010142,0.015419,0.000124,0.000170,0.002957,0.722673,0.507465,0.599364,0.135430,0.039835,0.061453,0.000002,0.000002,0.000005,0.000007,0.000015,0.002462,0.002472,0.001522
6.450000,-43.405908,-9.538901,-27.341936,1.895624,0.494838,-0.633377,0.995961,0.024183,0.041347,0.075936,0.127019,0.706806,0.002763,-0.001680,0.002725,0.001394,0.003773,0.025389,-42.116247,-9.096393,-25.890687,2.369887,0.307294,-0.289424,0.997211,0.019946,0.039891,0.059837,0.127957,0.709140,0.005039,-0.002961,0.002002,0.020065,-0.010174,0.015397,0.000123,0.000169,0.002967,0.740520,0.514074,0.611344,0.136306,0.039774,0.062033,0.000002,0.000002,0.000005,0.000007,0.000015,0.002462,0.002472,0.001520
6.500000,-43.248650,-9.542301,-27.396367,1.943297,0.467719,-0.642314,0.995951,0.023228,0.040278,0.076941,0.127970,0.709064,0.003267,-0.001363,0.002832,0.001557,0.003861,0.024306,-41.997821,-9.081041,-25.905148,2.367050,0.306741,-0.288966,0.997218,0.019921,0.039843,0.059764,0.128424,0.711238,0.005039,-0.002961,0.002001,0.020082,-0.010194,0.015360,0.000121,0.000168,0.002977,0.758724,0.520760,0.623657,0.137152,0.039712,0.062626,0.000002,0.000002,0.000005,0.000007,0.000015,0.002462,0.002472,0.001517
6.550000,-43.169576,-9.523449,-27.421081,1.928623,0.465555,-0.637291,0.995952,0.023318,0.040408,0.076830,0.128256,0.710868,0.003275,-0.001448,0.002843,0.001542,0.003793,0.024785,-41.879554,-9.065721,-25.919582,2.363485,0.306048,-0.288392,0.997227,0.019891,0.039782,0.059673,0.128919,0.713313,0.005035,-0.002963,0.001999,0.020041,-0.010210,0.015354,0.000118,0.000165,0.002985,0.773286,0.526474,0.635654,0.135705,0.038752,0.063194,0.000002,0.000002,0.000005,0.000006,0.000015,0.002462,0.002472,0.001512
6.600000,-43.091414,-9.534456,-27.442298,1.914895,0.439017,-0.630838,0.995939,0.022437,0.040441,0.077239,0.128774,0.712606,0.003633,-0.001524,0.002946,0.001615,0.003610,0.025576,-41.761484,-9.050439,-25.933985,2.359196,0.305214,-0.287702,0.997237,0.019855,0.039709,0.059564,0.129443,0.715364,0.005035,-0.002963,0.001999,0.020064,-0.010197,0.015363,0.000118,0.000165,0.002994,0.791891,0.533272,0.648666,0.136371,0.038669,0.063814,0.000002,0.000002,0.000004,0.000006,0.000015,0.002462,0.002472,0.001510
6.650000,-42.997142,-9.541026,-27.469456,1.914087,0.413550,-0.629160,0.995932,0.021835,0.040302,0.077580,0.129985,0.714462,0.003966,-0.001528,0.003033,0.001683,0.003489,0.025929,-41.643647,-9.035202,-25.948350,2.354185,0.304241,-0.286896,0.997249,0.019812,0.039624,0.059435,0.129994,0.717391,0.005031,-0.002961,0.001995,0.020063,-0.010175,0.015353,0.000114,0.000161,0.003002,0.806545,0.539096,0.661393,0.134785,0.037742,0.064417,0.000002,0.000002,0.000004,0.000006,0.000015,0.002462,0.002472,0.001504
6.700000,-42.912311,-9.517831,-27.497604,1.900974,0.418097,-0.628422,0.995967,0.021921,0.040217,0.077143,0.130591,0.716053,0.003912,-0.001574,0.003024,0.001657,0.003474,0.026149,-41.526078,-9.020017,-25.962672,2.348454,0.303130,-0.285975,0.997262,0.019763,0.039526,0.059289,0.130573,0.719394,0.005032,-0.002959,0.001997,0.020058,-0.010155,0.015339,0.000113,0.000160,0.003012,0.825588,0.546017,0.675120,0.135370,0.037662,0.065061,0.000002,0.000002,0.000004,0.000006,0.000015,0.002462,0.002472,0.001501
6.750000,-42.832980,-9.504678,-27.522532,1.884045,0.411037,-0.628184,0.995988,0.021786,0.040321,0.076866,0.131421,0.718014,0.003964,-0.001640,0.003045,0.001639,0.003407,0.026591,-41.408813,-9.004891,-25.976946,2.342007,0.301883,-0.284941,0.997277,0.019708,0.039416,0.059124,0.131179,0.721370,0.005031,-0.002957,0.001998,0.020088,-0.010101,0.015343,0.000110,0.000157,0.003019,0.840424,0.551979,0.688591,0.133687,0.036775,0.065692,0.000002,0.000002,0.000004,0.000006,0.000015,0.002461,0.002472,0.001495
6.800000,-42.793444,-9.457911,-27.541135,1.837787,0.437404,-0.623798,0.996039,0.022696,0.040840,0.075648,0.131282,0.719490,0.003547,-0.001859,0.002959,0.001479,0.003415,0.027571,-41.291889,-8.989831,-25.991165,2.334848,0.300501,-0.283794,0.997294,0.019647,0.039294,0.058941,0.131812,0.723320,0.005028,-0.002952,0.001998,0.020071,-0.010102,0.015329,0.000110,0.000157,0.003028,0.859927,0.559030,0.703056,0.134172,0.036690,0.066358,0.000002,0.000002,0.000004,0.000006,0.000015,0.002461,0.002472,0.001491
6.850000,-42.765381,-9.432785,-27.552898,1.785053,0.443314,-0.619837,0.996077,0.022944,0.041336,0.074801,0.131277,0.720597,0.003368,-0.002114,0.002938,0.001324,0.003316,0.029013,-41.175341,-8.974843,-26.005323,2.326981,0.298985,-0.282536,0.997313,0.019580,0.039160,0.058740,0.132472,0.725243,0.005030,-0.002953,0.001994,0.020082,-0.010121,0.015324,0.000109,0.000156,0.003038,0.879776,0.566157,0.717896,0.134645,0.036605,0.067033,0.000002,0.000002,0.000004,0.000006,0.000015,0.002461,0.002472,0.001488
6.900000,-42.658727,-9.459506,-27.580818,1.790493,0.402009,-0.620551,0.996046,0.021729,0.041001,0.075763,0.132739,0.722573,0.003937,-0.002052,0.003085,0.001409,0.003132,0.029160,-41.059203,-8.959935,-26.019416,2.318411,0.297338,-0.281167,0.997333,0.019507,0.039014,0.058521,0.133158,0.727139,0.005027,-0.002959,0.001996,0.020088,-0.010119,0.015335,0.000106,0.000152,0.003046,0.895272,0.572326,0.732482,0.132913,0.035752,0.067698,0.000002,0.000002,0.000003,0.000006,0.000015,0.002461,0.002471,0.001482
6.950000,-42.625887,-9.438029,-27.594342,1.743344,0.406246,-0.617060,0.996081,0.021916,0.041496,0.074966,0.133046,0.723984,0.003799,-0.002273,0.003070,0.001259,0.003050,0.030460,-40.943511,-8.945112,-26.033438,2.309142,0.295561,-0.279690,0.997354,0.019428,0.038856,0.058284,0.133870,0.729006,0.005026,-0.002959,0.001993,0.020100,-0.010088,0.015376,0.000106,0.000152,0.003056,0.915773,0.579590,0.748071,0.133355,0.035667,0.068392,0.000002,0.000002,0.000003,0.000005,0.000015,0.002461,0.002471,0.001478
7.000000,-42.396218,-9.438871,-27.665413,1.830013,0.380586,-0.622238,0.996082,0.020837,0.039505,0.076326,0.134662,0.726105,0.004325,-0.001731,0.003162,0.001642,0.003165,0.027426,-40.828300,-8.930381,-26.047384,2.299181,0.293657,-0.278106,0.997377,0.019343,0.038686,0.058030,0.134607,0.730845,0.005028,-0.002959,0.001992,0.020117,-0.010113,0.015367,0.000102,0.000148,0.003066,0.931869,0.585940,0.763413,0.131625,0.034851,0.069077,0.000002,0.000002,0.000003,0.000005,0.000015,0.002461,0.002471,0.001472
7.050000,-42.142951,-9.370832,-27.756340,1.925448,0.413349,-0.631088,0.996140,0.021311,0.037446,0.076481,0.135072,0.728919,0.004164,-0.001097,0.003058,0.002147,0.003578,0.023024,-40.713605,-8.915748,-26.061247,2.288533,0.291628,-0.276416,0.997402,0.019253,0.038505,0.057758,0.135370,0.732654,0.005027,-0.002957,0.001992,0.020121,-0.010119,0.015354,0.000100,0.000147,0.003077,0.952908,0.593344,0.779790,0.131999,0.034771,0.069790,0.000002,0.000002,0.000003,0.000005,0.000015,0.002461,0.002471,0.001468
7.100000,-41.780222,-9.267487,-27.882090,2.088727,0.469905,-0.644034,0.996224,0.022288,0.034162,0.076640,0.135560,0.732206,0.003879,-0.000084,0.002890,0.003068,0.004208,0.015696,-40.599458,-8.901220,-26.075024,2.277205,0.289477,-0.274622,0.997428,0.019156,0.038312,0.057468,0.136157,0.734433,0.005032,-0.002955,0.001991,0.020155,-0.010132,0.015369,0.000095,0.000144,0.003087,0.968937,0.599839,0.796018,0.130115,0.033987,0.070502,0.000002,0.000002,0.000003,0.000005,0.000015,0.002461,0.002471,0.001461
7.150000,-41.676892,-9.255446,-27.910896,2.082248,0.461612,-0.643187,0.996242,0.021896,0.033993,0.076596,0.136449,0.734284,0.003993,-0.000096,0.002918,0.003046,0.004155,0.015869,-40.485895,-8.886802,-26.088708,2.265203,0.287205,-0.272726,0.997455,0.019054,0.038108,0.057162,0.136969,0.736181,0.005031,-0.002958,0.001994,0.020155,-0.010160,0.015361,0.000094,0.000143,0.003097,0.989912,0.607334,0.813304,0.130280,0.033896,0.071238,0.000002,0.000002,0.000003,0.000005,0.000015,0.002461,0.002471,0.001457
7.200000,-41.523548,-9.229554,-27.954319,2.103497,0.462308,-0.640544,0.996265,0.021670,0.033097,0.076752,0.137058,0.736056,0.004066,0.000068,0.002918,0.003220,0.004193,0.014664,-40.372949,-8.872501,-26.102294,2.252534,0.284816,-0.270730,0.997484,0.018946,0.037892,0.056838,0.137804,0.737899,0.005033,-0.002953,0.001994,0.020177,-0.010144,0.015338,0.000093,0.000142,0.003107,1.010928,0.614882,0.831049,0.130345,0.033801,0.071984,0.000002,0.000002,0.000003,0.000005,0.000015,0.002461,0.002471,0.001453
7.250000,-41.227767,-9.213998,-28.019060,2.213786,0.446209,-0.637439,0.996226,0.020562,0.030912,0.078455,0.138682,0.738934,0.004518,0.000650,0.002951,0.003887,0.004217,0.010239,-40.260653,-8.858323,-26.115779,2.239207,0.282312,-0.268636,0.997514,0.018833,0.037665,0.056498,0.138663,0.739585,0.005032,-0.002956,0.001995,0.020144,-0.010140,0.015328,0.000089,0.000138,0.003113,1.025449,0.621451,0.848845,0.127931,0.033019,0.072736,0.000002,0.000002,0.000003,0.000005,0.000015,0.002461,0.002471,0.001443
7.300000,-41.145206,-9.224565,-28.036116,2.191132,0.418573,-0.634960,0.996203,0.019796,0.030921,0.078939,0.140073,0.740587,0.004778,0.000535,0.002999,0.003684,0.004070,0.011356,-40.149039,-8.844272,-26.129156,2.225228,0.279697,-0.266445,0.997546,0.018714,0.037428,0.056141,0.139545,0.741238,0.005030,-0.002955,0.001995,0.020152,-0.010139,0.015336,0.000088,0.000137,0.003121,1.045909,0.629062,0.867570,0.127750,0.032915,0.073500,0.000002,0.000002,0.000003,0.000005,0.000015,0.002461,0.002471,0.001438
7.350000,-41.165939,-9.178242,-28.062739,2.105819,0.445789,-0.636814,0.996380,0.020806,0.031763,0.076054,0.140073,0.741937,0.004284,0.000213,0.002970,0.003286,0.004210,0.014090,-40.038141,-8.830355,-26.142422,2.210607,0.276974,-0.264162,0.997578,0.018589,0.037179,0.055768,0.140449,0.742859,0.005033,-0.002959,0.001992,0.020099,-0.010152,0.015342,0.000085,0.000133,0.003122,1.058880,0.635687,0.886449,0.124980,0.032157,0.074264,0.000002,0.000002,0.000002,0.000005,0.000015,0.002460,0.002471,0.001428
7.400000,-41.019377,-9.124037,-28.110022,2.123063,0.471592,-0.634510,0.996483,0.021365,0.031141,0.074800,0.140587,0.744371,0.004067,0.000362,0.002938,0.003581,0.004336,0.012644,-39.927989,-8.816576,-26.155571,2.195352,0.274145,-0.261786,0.997612,0.018460,0.036919,0.055379,0.141375,0.744447,0.005034,-0.002958,0.001992,0.020082,-0.010157,0.015347,0.000084,0.000132,0.003128,1.078893,0.643374,0.906143,0.124603,0.032042,0.075039,0.000002,0.000002,0.000002,0.000005,0.000015,0.002460,0.002471,0.001422
7.450000,-40.934926,-9.123207,-28.131563,2.101723,0.452827,-0.631147,0.996473,0.020820,0.030877,0.075191,0.141607,0.745425,0.004235,0.000279,0.002957,0.003395,0.004246,0.013479,-39.818616,-8.802942,-26.168599,2.179472,0.271214,-0.259322,0.997647,0.018325,0.036649,0.054974,0.142323,0.746002,0.005036,-0.002956,0.001990,0.020095,-0.010150,0.015356,0.000081,0.000128,0.003128,1.091070,0.650084,0.926061,0.121693,0.031302,0.075813,0.000002,0.000002,0.000002,0.000004,0.000015,0.002460,0.002471,0.001411
7.500000,-40.847315,-9.142120,-28.146088,2.082470,0.415747,-0.625075,0.996401,0.019731,0.030779,0.076468,0.143211,0.746966,0.004582,0.000180,0.002981,0.003109,0.004077,0.014520,-39.710053,-8.789457,-26.181502,2.162976,0.268185,-0.256771,0.997683,0.018184,0.036369,0.054553,0.143291,0.747522,0.005036,-0.002961,0.001992,0.020087,-0.010169,0.015348,0.000080,0.000127,0.003134,1.110855,0.657852,0.946734,0.121201,0.031184,0.076598,0.000002,0.000002,0.000002,0.000004,0.000015,0.002459,0.002471,0.001405
7.550000,-40.606500,-9.112898,-28.186392,2.146561,0.412734,-0.615083,0.996393,0.019325,0.029377,0.077225,0.144829,0.749580,0.004758,0.000511,0.002960,0.003702,0.004012,0.011198,-39.602329,-8.776125,-26.194275,2.145875,0.265061,-0.254136,0.997720,0.018039,0.036078,0.054117,0.144280,0.749008,0.005034,-0.002962,0.001992,0.020106,-0.010124,0.015347,0.000078,0.000126,0.003140,1.130698,0.665677,0.967884,0.120666,0.031068,0.077389,0.000002,0.000003,0.000002,0.000004,0.000015,0.002459,0.002471,0.001399
7.600000,-40.512836,-9.033452,-28.243758,2.132278,0.459991,-0.620030,0.996661,0.020676,0.028955,0.073492,0.144696,0.751524,0.004203,0.000580,0.002950,0.004061,0.004278,0.010547,-39.495475,-8.762952,-26.206914,2.128179,0.261846,-0.251419,0.997757,0.017889,0.035777,0.053666,0.145289,0.750460,0.005035,-0.002960,0.001992,0.020108,-0.010134,0.015305,0.000076,0.000122,0.003137,1.142187,0.672557,0.989289,0.117654,0.030367,0.078169,0.000002,0.000002,0.000002,0.000004,0.000015,0.002459,0.002471,0.001387
7.650000,-40.412716,-9.029727,-28.266100,2.115447,0.441097,-0.616050,0.996654,0.020163,0.028755,0.073811,0.146329,0.753316,0.004360,0.000536,0.002953,0.003904,0.004203,0.010994,-39.389521,-8.749942,-26.219415,2.109898,0.258543,-0.248623,0.997796,0.017733,0.035467,0.053200,0.146317,0.751876,0.005037,-0.002961,0.001992,0.020132,-0.010132,0.015290,0.000075,0.000121,0.003142,1.161809,0.680476,1.011421,0.117037,0.030254,0.078967,0.000002,0.000003,0.000002,0.000004,0.000015,0.002458,0.002471,0.001381
7.700000,-40.218996,-9.031677,-28.285575,2.149654,0.413325,-0.607611,0.996552,0.019014,0.027804,0.075826,0.148088,0.755401,0.004729,0.000678,0.002931,0.004066,0.004001,0.009386,-39.284495,-8.737099,-26.231775,2.091044,0.255155,-0.245752,0.997836,0.017573,0.035146,0.052719,0.147363,0.753257,0.005035,-0.002965,0.001989,0.020161,-0.010075,0.015296,0.000072,0.000117,0.003138,1.172956,0.687477,1.033859,0.114008,0.029580,0.079752,0.000002,0.000002,0.000002,0.000004,0.000015,0.002458,0.002471,0.001369
7.750000,-40.018307,-8.963160,-28.336741,2.188179,0.446104,-0.604301,0.996728,0.019622,0.026462,0.073817,0.148622,0.757417,0.004482,0.000950,0.002921,0.004839,0.004081,0.006452,-39.180426,-8.724428,-26.243989,2.071628,0.251688,-0.242807,0.997876,0.017408,0.034817,0.052225,0.148427,0.754602,0.005031,-0.002965,0.001984,0.020169,-0.010040,0.015272,0.000070,0.000116,0.003143,1.192404,0.695489,1.056996,0.113322,0.029468,0.080557,0.000002,0.000003,0.000002,0.000004,0.000015,0.002458,0.002471,0.001363
7.800000,-40.161044,-9.029082,-28.332681,2.043382,0.387954,-0.610200,0.996600,0.018472,0.028221,0.075168,0.150240,0.757608,0.004796,0.000303,0.002947,0.003006,0.004079,0.013719,-39.077341,-8.711932,-26.256055,2.051661,0.248145,-0.239791,0.997918,0.017239,0.034477,0.051716,0.149509,0.755911,0.005028,-0.002964,0.001984,0.020188,-0.010052,0.015267,0.000068,0.000113,0.003136,1.203168,0.702616,1.080460,0.110285,0.028827,0.081342,0.000002,0.000002,0.000002,0.000004,0.000015,0.002457,0.002471,0.001351
7.850000,-40.034133,-9.006917,-28.363462,2.042858,0.388904,-0.607275,0.996646,0.018135,0.027600,0.074871,0.151030,0.759278,0.004816,0.000355,0.002942,0.003135,0.004051,0.013104,-38.975269,-8.699614,-26.267967,2.031155,0.244529,-0.236708,0.997959,0.017065,0.034129,0.051194,0.150608,0.757184,0.005027,-0.002966,0.001984,0.020247,-0.010056,0.015252,0.000067,0.000111,0.003141,1.222604,0.710734,1.104607,0.109570,0.028720,0.082155,0.000002,0.000002,0.000002,0.000004,0.000015,0.002456,0.002471,0.001345
7.900000,-39.968412,-9.017221,-28.379625,2.012950,0.363600,-0.604802,0.996606,0.017462,0.027508,0.075598,0.152609,0.760333,0.005001,0.000230,0.002937,0.002693,0.003988,0.014419,-38.874234,-8.687480,-26.279724,2.010124,0.240844,-0.233561,0.998002,0.016886,0.033772,0.050659,0.151722,0.758420,0.005027,-0.002965,0.001983,0.020259,-0.010059,0.015278,0.000066,0.000110,0.003145,1.242221,0.718919,1.129258,0.108851,0.028615,0.082972,0.000002,0.000003,0.000002,0.000004,0.000015,0.002456,0.002471,0.001339
7.950000,-40.014739,-9.056362,-28.384660,1.921761,0.322446,-0.602191,0.996523,0.016553,0.028524,0.076517,0.154230,0.761388,0.005223,-0.000155,0.002943,0.001489,0.004019,0.018672,-38.774265,-8.675531,-26.291322,1.988579,0.237096,-0.230351,0.998045,0.016703,0.033407,0.050110,0.152853,0.759620,0.005025,-0.002962,0.001981,0.020244,-0.010055,0.015289,0.000065,0.000107,0.003141,1.253980,0.726344,1.154167,0.106015,0.028033,0.083771,0.000002,0.000002,0.000001,0.000004,0.000015,0.002455,0.002471,0.001328
8.000000,-40.147192,-8.030605,-28.465943,1.893617,0.457371,-0.606438,0.996925,0.016793,0.027511,0.071432,0.154672,0.762950,0.004795,0.000114,0.005715,0.002844,0.004978,0.016981,-38.675385,-8.663771,-26.302758,1.966534,0.233287,-0.227083,0.998089,0.016516,0.033033,0.049549,0.153998,0.760783,0.005027,-0.002962,0.001979,0.020322,-0.010044,0.015280,0.000064,0.000102,0.003139,0.495189,0.417077,0.471119,0.065221,0.021836,0.039984,0.000002,0.000002,0.000001,0.000003,0.000013,0.002452,0.002469,0.000956
8.050000,-40.184946,-8.061169,-28.420370,1.771944,0.396357,-0.591692,0.996769,0.015417,0.029088,0.073269,0.156581,0.762674,0.005165,-0.000511,0.005773,0.000972,0.004825,0.022131,-38.577620,-8.652203,-26.314030,1.944002,0.229422,-0.223760,0.998133,0.016325,0.032651,0.048976,0.155158,0.761908,0.005029,-0.002960,0.001977,0.020333,-0.010036,0.015278,0.000062,0.000099,0.003139,0.501731,0.421621,0.479247,0.064047,0.021443,0.040417,0.000002,0.000002,0.000001,0.000003,0.000013,0.002452,0.002469,0.000951
8.100000,-40.126018,-8.066263,-28.424617,1.729625,0.360684,-0.582793,0.996713,0.014460,0.029209,0.074162,0.158559,0.763626,0.005422,-0.000681,0.005820,0.000296,0.004698,0.023592,-38.480993,-8.640830,-26.325134,1.920997,0.225506,-0.220384,0.998177,0.016130,0.032261,0.048391,0.156331,0.762997,0.005030,-0.002965,0.001977,0.020319,-0.010021,0.015300,0.000061,0.000098,0.003147,0.510436,0.426468,0.488064,0.064125,0.021437,0.040866,0.000002,0.000002,0.000001,0.000003,0.000013,0.002451,0.002469,0.000949
8.150000,-40.038309,-8.056059,-28.449582,1.711915,0.342398,-0.580241,0.996733,0.013830,0.028665,0.074237,0.159587,0.764479,0.005525,-0.000693,0.005840,0.000162,0.004639,0.023728,-38.385528,-8.629654,-26.336067,1.897532,0.221541,-0.216958,0.998222,0.015931,0.031863,0.047794,0.157517,0.764047,0.005030,-0.002962,0.001976,0.020321,-0.010004,0.015290,0.000059,0.000096,0.003151,0.517493,0.431149,0.496598,0.063054,0.021074,0.041306,0.000002,0.000002,0.000001,0.000003,0.000013,0.002451,0.002469,0.000945
8.200000,-39.939046,-8.024163,-28.493893,1.704972,0.353202,-0.577348,0.996861,0.014098,0.027890,0.072749,0.160240,0.765719,0.005364,-0.000602,0.005796,0.000584,0.004720,0.022970,-38.291247,-8.618677,-26.346829,1.873623,0.217533,-0.213487,0.998267,0.015729,0.031458,0.047187,0.158715,0.765061,0.005032,-0.002960,0.001978,0.020351,-0.009995,0.015288,0.000059,0.000095,0.003161,0.526606,0.436120,0.505846,0.063149,0.021073,0.041763,0.000002,0.000002,0.000001,0.000003,0.000013,0.002450,0.002469,0.000942
8.250000,-39.924601,-8.001856,-28.500065,1.633021,0.360833,-0.572851,0.996987,0.014411,0.028369,0.070735,0.160601,0.766337,0.005130,-0.000854,0.005742,0.000172,0.004937,0.024864,-38.198172,-8.607901,-26.357415,1.849283,0.213485,-0.209972,0.998312,0.015523,0.031045,0.046568,0.159925,0.766037,0.005031,-0.002957,0.001981,0.020364,-0.010024,0.015283,0.000058,0.000094,0.003171,0.535924,0.441155,0.515323,0.063255,0.021077,0.042225,0.000002,0.000002,0.000001,0.000003,0.000013,0.002450,0.002469,0.000940
8.300000,-39.927208,-8.000498,-28.482910,1.547255,0.342727,-0.560596,0.997032,0.014052,0.028960,0.069935,0.161554,0.765875,0.005144,-0.001220,0.005768,-0.000864,0.005043,0.027649,-38.106325,-8.597329,-26.367825,1.824528,0.209402,-0.206417,0.998357,0.015313,0.030626,0.045939,0.161146,0.766975,0.005032,-0.002956,0.001980,0.020340,-0.010002,0.015289,0.000057,0.000092,0.003179,0.543756,0.446036,0.524472,0.062289,0.020736,0.042678,0.000002,0.000002,0.000001,0.000003,0.000013,0.002449,0.002469,0.000937
8.350000,-39.900529,-7.978630,-28.492986,1.485509,0.348175,-0.554466,0.997143,0.014194,0.029214,0.068197,0.162439,0.766617,0.004965,-0.001405,0.005709,-0.001145,0.005231,0.028972,-38.015726,-8.586961,-26.378056,1.799372,0.205288,-0.202826,0.998403,0.015100,0.030200,0.045300,0.162377,0.767876,0.005034,-0.002955,0.001984,0.020272,-0.010055,0.015264,0.000056,0.000091,0.003191,0.553548,0.451197,0.534387,0.062421,0.020742,0.043149,0.000002,0.000002,0.000001,0.000003,0.000013,0.002449,0.002469,0.000935
8.400000,-39.796777,-7.967719,-28.530640,1.487818,0.331125,-0.554754,0.997190,0.013639,0.028295,0.068012,0.164127,0.767614,0.005122,-0.001294,0.005784,-0.001066,0.005074,0.028251,-37.926395,-8.576800,-26.388107,1.773831,0.201146,-0.199201,0.998448,0.014884,0.029768,0.044652,0.163617,0.768739,0.005032,-0.002956,0.001981,0.020315,-0.010031,0.015276,0.000055,0.000089,0.003202,0.562116,0.456226,0.543906,0.061593,0.020425,0.043606,0.000002,0.000002,0.000001,0.000003,0.000013,0.002448,0.002469,0.000931
8.450000,-39.734458,-7.939457,-28.560596,1.453858,0.342385,-0.552208,0.997284,0.013875,0.027914,0.066732,0.164860,0.768413,0.004948,-0.001318,0.005695,-0.000871,0.005211,0.028335,-37.838349,-8.566847,-26.397976,1.747921,0.196982,-0.195545,0.998493,0.014665,0.029330,0.043994,0.164867,0.769565,0.005033,-0.002962,0.001982,0.020326,-0.010013,0.015236,0.000054,0.000089,0.003215,0.572448,0.461518,0.554250,0.061763,0.020435,0.044084,0.000002,0.000002,0.000001,0.000003,0.000013,0.002448,0.002469,0.000930
8.500000,-39.642082,-7.913925,-28.604990,1.448049,0.349859,-0.552733,0.997365,0.013764,0.027052,0.065897,0.165767,0.769452,0.004891,-0.001215,0.005658,-0.000481,0.005204,0.027591,-37.751609,-8.557102,-26.407661,1.721658,0.192798,-0.191863,0.998539,0.014443,0.028885,0.043328,0.166124,0.770353,0.005036,-0.002961,0.001985,0.020321,-0.010022,0.015238,0.000053,0.000087,0.003229,0.581732,0.466693,0.564140,0.061036,0.020138,0.044546,0.000002,0.000002,0.000001,0.000002,0.000013,0.002447,0.002469,0.000927
8.550000,-39.565336,-7.896969,-28.635331,1.427723,0.342808,-0.552292,0.997434,0.013485,0.026476,0.065136,0.167091,0.770320,0.004906,-0.001193,0.005667,-0.000443,0.005182,0.027457,-37.666189,-8.547567,-26.417162,1.695057,0.188600,-0.188156,0.998584,0.014218,0.028435,0.042653,0.167389,0.771104,0.005035,-0.002962,0.001989,0.020322,-0.010021,0.015238,0.000052,0.000086,0.003243,0.592587,0.472114,0.574929,0.061234,0.020153,0.045031,0.000002,0.000002,0.000001,0.000002,0.000013,0.002447,0.002469,0.000926
8.600000,-39.474710,-7.895401,-28.665949,1.416734,0.316002,-0.548766,0.997492,0.012604,0.025638,0.064756,0.168854,0.771033,0.005134,-0.001126,0.005814,-0.000650,0.004970,0.027186,-37.582108,-8.538243,-26.426476,1.668135,0.184390,-0.184428,0.998629,0.013990,0.027980,0.041970,0.168661,0.771817,0.005034,-0.002957,0.001990,0.020361,-0.010030,0.015211,0.000052,0.000085,0.003257,0.603694,0.477601,0.585959,0.061429,0.020171,0.045521,0.000002,0.000002,0.000001,0.000002,0.000013,0.002447,0.002468,0.000924
8.650000,-39.371886,-7.879284,-28.716111,1.421282,0.308772,-0.550172,0.997561,0.012280,0.024541,0.064187,0.170218,0.771974,0.005194,-0.000972,0.005846,-0.000286,0.004822,0.026239,-37.499381,-8.529128,-26.435604,1.640909,0.180174,-0.180682,0.998674,0.013760,0.027520,0.041280,0.169938,0.772494,0.005034,-0.002957,0.001990,0.020357,-0.010073,0.015201,0.000050,0.000083,0.003271,0.613895,0.482984,0.596466,0.060791,0.019897,0.045991,0.000002,0.000002,0.000001,0.000002,0.000013,0.002446,0.002468,0.000922
8.700000,-39.307028,-7.875270,-28.732897,1.392130,0.286943,-0.544587,0.997624,0.011674,0.024108,0.063470,0.171751,0.772475,0.005317,-0.001012,0.005943,-0.000665,0.004752,0.026605,-37.418022,-8.520225,-26.444544,1.613396,0.175955,-0.176922,0.998718,0.013528,0.027055,0.040583,0.171221,0.773133,0.005034,-0.002960,0.001991,0.020354,-0.010042,0.015189,0.000050,0.000082,0.003286,0.625503,0.488602,0.607968,0.060993,0.019920,0.046489,0.000002,0.000002,0.000001,0.000002,0.000013,0.002446,0.002468,0.000921
8.750000,-39.280682,-7.870331,-28.723350,1.331480,0.266326,-0.539720,0.997692,0.011288,0.024321,0.062379,0.173452,0.772673,0.005347,-0.001225,0.005983,-0.001418,0.004895,0.027978,-37.338046,-8.511533,-26.453296,1.585612,0.171736,-0.173150,0.998762,0.013293,0.026586,0.039879,0.172509,0.773736,0.005034,-0.002961,0.001988,0.020369,-0.010054,0.015170,0.000049,0.000080,0.003300,0.636310,0.494131,0.618901,0.060417,0.019672,0.046965,0.000002,0.000002,0.000001,0.000002,0.000013,0.002445,0.002468,0.000918
8.800000,-39.171607,-7.848818,-28.789050,1.346218,0.268252,-0.543126,0.997772,0.011114,0.023044,0.061618,0.174832,0.773933,0.005329,-0.001006,0.005954,-0.000658,0.004717,0.026610,-37.259465,-8.503052,-26.461859,1.557575,0.167522,-0.169369,0.998806,0.013056,0.026112,0.039169,0.173800,0.774302,0.005036,-0.002962,0.001991,0.020388,-0.010041,0.015147,0.000048,0.000080,0.003315,0.648437,0.499884,0.630878,0.060630,0.019701,0.047469,0.000002,0.000002,0.000001,0.000002,0.000013,0.002444,0.002468,0.000917
8.850000,-39.125718,-7.813703,-28.811312,1.303338,0.293281,-0.536201,0.997808,0.011679,0.022754,0.061030,0.175212,0.774191,0.005029,-0.001089,0.005689,-0.000202,0.005054,0.026809,-37.182292,-8.494781,-26.470233,1.529301,0.163315,-0.165582,0.998849,0.012818,0.025635,0.038453,0.175094,0.774832,0.005042,-0.002965,0.001994,0.020393,-0.010032,0.015122,0.000047,0.000078,0.003329,0.659869,0.505561,0.642235,0.060095,0.019471,0.047951,0.000002,0.000002,0.000001,0.000002,0.000013,0.002443,0.002468,0.000915
8.900000,-39.121963,-7.807005,-28.780602,1.227170,0.280349,-0.521069,0.997856,0.011259,0.023320,0.060102,0.176239,0.774065,0.005012,-0.001404,0.005690,-0.001229,0.005400,0.028659,-37.106539,-8.486720,-26.478417,1.500809,0.159121,-0.161793,0.998892,0.012577,0.025154,0.037731,0.176391,0.775326,0.005046,-0.002963,0.001993,0.020383,-0.010009,0.015175,0.000047,0.000078,0.003343,0.672509,0.511448,0.654709,0.060310,0.019506,0.048465,0.000002,0.000002,0.000001,0.000002,0.000013,0.002443,0.002468,0.000914
8.950000,-39.058036,-7.816611,-28.797310,1.204205,0.239766,-0.518253,0.997958,0.010155,0.022698,0.058832,0.178260,0.774343,0.005290,-0.001402,0.005963,-0.001979,0.005160,0.028980,-37.032215,-8.478868,-26.486412,1.472117,0.154942,-0.158004,0.998934,0.012335,0.024670,0.037005,0.177689,0.775785,0.005047,-0.002965,0.001991,0.020385,-0.009978,0.015150,0.000047,0.000077,0.003358,0.685427,0.517406,0.667434,0.060536,0.019552,0.048981,0.000002,0.000002,0.000001,0.000002,0.000013,0.002443,0.002468,0.000913
9.000000,-38.881013,-7.799514,-28.941674,1.284046,0.236993,-0.539300,0.998090,0.009755,0.019903,0.057671,0.180616,0.776240,0.005431,-0.000774,0.006079,-0.000189,0.004283,0.025641,-36.959330,-8.471225,-26.494218,1.443241,0.150781,-0.154219,0.998976,0.012092,0.024183,0.036275,0.178989,0.776208,0.005047,-0.002964,0.001993,0.020364,-0.009970,0.015175,0.000046,0.000075,0.003372,0.697825,0.523307,0.679419,0.060089,0.019356,0.049470,0.000002,0.000002,0.000001,0.000002,0.000013,0.002442,0.002468,0.000912
9.050000,-38.871870,-7.805370,-28.904270,1.211344,0.209763,-0.526615,0.998149,0.009082,0.020515,0.056527,0.182290,0.776344,0.005545,-0.001075,0.006214,-0.001609,0.004575,0.027447,-36.887893,-8.463790,-26.501834,1.414201,0.146643,-0.150439,0.999017,0.011847,0.023694,0.035540,0.180289,0.776596,0.005048,-0.002964,0.001996,0.020345,-0.009968,0.015177,0.000046,0.000074,0.003386,0.711288,0.529407,0.692647,0.060322,0.019409,0.049994,0.000002,0.000002,0.000001,0.000002,0.000013,0.002441,0.002468,0.000911
9.100000,-38.828205,-7.793292,-28.912256,1.169536,0.204365,-0.518022,0.998199,0.008955,0.020174,0.055789,0.183544,0.776191,0.005502,-0.001169,0.006170,-0.001826,0.004759,0.027888,-36.817912,-8.456561,-26.509262,1.385014,0.142530,-0.146668,0.999058,0.011601,0.023202,0.034802,0.181588,0.776950,0.005045,-0.002964,0.002001,0.020310,-0.009952,0.015139,0.000045,0.000073,0.003400,0.724289,0.535464,0.705096,0.059905,0.019235,0.050488,0.000002,0.000002,0.000001,0.000002,0.000013,0.002440,0.002468,0.000910
9.150000,-38.821311,-7.788344,-28.877561,1.096511,0.190537,-0.503023,0.998233,0.008696,0.020533,0.055079,0.184708,0.775513,0.005479,-0.001458,0.006151,-0.002814,0.005220,0.029364,-36.749394,-8.449536,-26.516501,1.355698,0.138445,-0.142909,0.999097,0.011354,0.022708,0.034061,0.182886,0.777269,0.005046,-0.002964,0.002000,0.020334,-0.009999,0.015135,0.000044,0.000072,0.003414,0.738307,0.541711,0.718833,0.060139,0.019299,0.051019,0.000002,0.000002,0.000001,0.000002,0.000013,0.002440,0.002468,0.000909
9.200000,-38.741936,-7.757146,-28.947410,1.095476,0.212258,-0.507546,0.998240,0.009149,0.019536,0.055246,0.184985,0.776643,0.005262,-0.001295,0.005887,-0.001423,0.005145,0.028273,-36.682344,-8.442716,-26.523553,1.326271,0.134392,-0.139164,0.999136,0.011106,0.022212,0.033318,0.184182,0.777555,0.005043,-0.002962,0.001997,0.020352,-0.010029,0.015103,0.000044,0.000071,0.003427,0.752027,0.547934,0.731660,0.059794,0.019152,0.051513,0.000002,0.000002,0.000001,0.000002,0.000013,0.002439,0.002468,0.000908
9.250000,-38.678371,-7.751555,-28.983480,1.081929,0.199548,-0.508391,0.998318,0.008928,0.018820,0.054111,0.186852,0.777104,0.005335,-0.001236,0.005979,-0.001478,0.004976,0.028107,-36.616769,-8.436097,-26.530418,1.296753,0.130374,-0.135436,0.999174,0.010857,0.021715,0.032572,0.185475,0.777808,0.005047,-0.002961,0.002000,0.020358,-0.010040,0.015111,0.000043,0.000070,0.003441,0.766665,0.554335,0.745865,0.060053,0.019224,0.052049,0.000002,0.000002,0.000001,0.000002,0.000013,0.002438,0.002468,0.000907
9.300000,-38.621118,-7.742855,-29.013729,1.061942,0.190345,-0.507586,0.998378,0.008730,0.018203,0.053235,0.188309,0.777479,0.005353,-0.001212,0.006003,-0.001459,0.004916,0.028027,-36.552670,-8.429678,-26.537097,1.267161,0.126393,-0.131727,0.999212,0.010608,0.021216,0.031825,0.186766,0.778028,0.005047,-0.002960,0.002001,0.020334,-0.010071,0.015086,0.000043,0.000070,0.003454,0.781596,0.560813,0.760340,0.060313,0.019303,0.052587,0.000002,0.000002,0.000001,0.000002,0.000013,0.002438,0.002468,0.000907
9.350000,-38.540740,-7.743158,-29.077544,1.067413,0.169030,-0.513583,0.998508,0.007969,0.017025,0.051267,0.190632,0.778398,0.005512,-0.001027,0.006217,-0.001410,0.004420,0.027476,-36.490053,-8.423457,-26.543591,1.237515,0.122452,-0.128040,0.999249,0.010359,0.020717,0.031076,0.188052,0.778216,0.005048,-0.002962,0.002003,0.020342,-0.010074,0.015083,0.000042,0.000068,0.003467,0.796329,0.567279,0.773790,0.060037,0.019184,0.053084,0.000002,0.000002,0.000001,0.000002,0.000013,0.002436,0.002467,0.000906
9.400000,-38.461527,-7.726008,-29.148317,1.071466,0.175564,-0.520393,0.998555,0.007909,0.015735,0.050765,0.191544,0.778824,0.005444,-0.000855,0.006125,-0.000436,0.004134,0.026631,-36.428920,-8.417432,-26.549901,1.207832,0.118553,-0.124377,0.999284,0.010109,0.020218,0.030327,0.189334,0.778372,0.005048,-0.002960,0.002005,0.020310,-0.010068,0.015079,0.000042,0.000067,0.003480,0.811849,0.573914,0.788790,0.060304,0.019272,0.053629,0.000002,0.000002,0.000001,0.000002,0.000013,0.002436,0.002467,0.000905
9.450000,-38.425902,-7.731870,-29.142906,1.031995,0.145513,-0.513994,0.998653,0.007016,0.015588,0.048998,0.193472,0.779050,0.005594,-0.000957,0.006337,-0.001543,0.004209,0.027335,-36.369270,-8.411601,-26.556029,1.178131,0.114700,-0.120742,0.999319,0.009859,0.019718,0.029577,0.190610,0.778498,0.005050,-0.002956,0.002008,0.020310,-0.010062,0.015061,0.000041,0.000066,0.003492,0.827219,0.580548,0.802727,0.060064,0.019176,0.054131,0.000002,0.000002,0.000001,0.000002,0.000013,0.002435,0.002467,0.000905
9.500000,-38.358116,-7.724109,-29.198390,1.026907,0.138473,-0.518263,0.998720,0.006520,0.014597,0.047985,0.194587,0.779709,0.005609,-0.000840,0.006361,-0.001139,0.003929,0.026898,-36.311106,-8.405961,-26.561976,1.148431,0.110895,-0.117135,0.999353,0.009609,0.019219,0.028828,0.191880,0.778592,0.005050,-0.002962,0.002007,0.020333,-0.010084,0.015088,0.000041,0.000065,0.003506,0.843321,0.587343,0.818282,0.060332,0.019276,0.054683,0.000002,0.000002,0.000001,0.000002,0.000013,0.002434,0.002467,0.000904
9.550000,-38.318691,-7.707304,-29.204906,0.991418,0.144822,-0.510442,0.998724,0.006664,0.014286,0.047984,0.195540,0.779611,0.005475,-0.000933,0.006163,-0.000849,0.004274,0.026996,-36.254427,-8.400510,-26.567743,1.118751,0.107140,-0.113559,0.999387,0.009360,0.018720,0.028080,0.193143,0.778657,0.005054,-0.002966,0.002006,0.020331,-0.010073,0.015078,0.000041,0.000064,0.003517,0.859329,0.594150,0.832713,0.060121,0.019195,0.055190,0.000002,0.000002,0.000001,0.000002,0.000012,0.002433,0.002467,0.000903
9.600000,-38.306829,-7.711094,-29.156936,0.927789,0.119664,-0.493184,0.998772,0.006104,0.014664,0.046920,0.197047,0.779120,0.005559,-0.001191,0.006277,-0.002375,0.004855,0.028115,-36.199231,-8.395246,-26.573333,1.089109,0.103437,-0.110017,0.999419,0.009111,0.018222,0.027332,0.194400,0.778693,0.005050,-0.002970,0.002000,0.020340,-0.010071,0.015083,0.000040,0.000063,0.003531,0.876022,0.601111,0.848836,0.060387,0.019305,0.055750,0.000002,0.000002,0.000000,0.000002,0.000012,0.002432,0.002467,0.000903
9.650000,-38.225263,-7.681575,-29.255934,0.939841,0.148312,-0.502231,0.998756,0.006643,0.013379,0.047569,0.197330,0.780462,0.005317,-0.000959,0.005918,-0.000059,0.004461,0.026804,-36.145515,-8.390166,-26.578746,1.059524,0.099788,-0.106511,0.999450,0.008862,0.017724,0.026587,0.195647,0.778700,0.005051,-0.002972,0.001998,0.020324,-0.010094,0.015073,0.000040,0.000063,0.003544,0.893029,0.608158,0.865238,0.060657,0.019424,0.056313,0.000002,0.000002,0.000000,0.000002,0.000012,0.002432,0.002466,0.000903
9.700000,-38.223436,-7.679207,-29.184854,0.865672,0.130015,-0.483294,0.998770,0.006442,0.013986,0.047136,0.198624,0.779512,0.005320,-0.001295,0.005905,-0.001505,0.005375,0.027928,-36.093277,-8.385266,-26.583984,1.030014,0.096195,-0.103042,0.999480,0.008614,0.017229,0.025843,0.196887,0.778680,0.005054,-0.002971,0.001999,0.020328,-0.010078,0.015073,0.000040,0.000061,0.003555,0.910041,0.615232,0.880353,0.060503,0.019378,0.056823,0.000002,0.000002,0.000000,0.000002,0.000012,0.002430,0.002466,0.000902
9.750000,-38.183640,-7.663312,-29.199375,0.834090,0.137570,-0.475711,0.998769,0.006730,0.013539,0.047233,0.199741,0.779341,0.005196,-0.001344,0.005702,-0.000962,0.005623,0.027798,-36.042512,-8.380545,-26.589050,1.000599,0.092660,-0.099612,0.999510,0.008367,0.016735,0.025102,0.198117,0.778632,0.005056,-0.002968,0.001998,0.020320,-0.010063,0.015068,0.000039,0.000061,0.003568,0.927692,0.622456,0.897272,0.060784,0.019512,0.057389,0.000002,0.000002,0.000000,0.000002,0.000012,0.002430,0.002466,0.000902
9.800000,-38.139305,-7.663890,-29.232142,0.814914,0.118240,-0.475232,0.998866,0.006189,0.012887,0.045403,0.201826,0.779643,0.005297,-0.001300,0.005875,-0.001425,0.005412,0.027892,-35.993215,-8.375999,-26.593946,0.971297,0.089185,-0.096224,0.999538,0.008121,0.016243,0.024364,0.199336,0.778559,0.005058,-0.002964,0.001999,0.020307,-0.010044,0.015074,0.000039,0.000060,0.003578,0.945456,0.629721,0.912709,0.060687,0.019496,0.057893,0.000002,0.000002,0.000000,0.000002,0.000012,0.002428,0.002466,0.000902
9.850000,-38.106403,-7.647795,-29.224682,0.776864,0.128925,-0.466371,0.998839,0.006373,0.012799,0.046007,0.202274,0.779707,0.005154,-0.001416,0.005622,-0.000985,0.005892,0.027828,-35.945380,-8.371626,-26.598674,0.942126,0.085770,-0.092879,0.999566,0.007877,0.015753,0.023630,0.200546,0.778459,0.005059,-0.002963,0.001997,0.020302,-0.010041,0.015111,0.000039,0.000059,0.003591,0.963776,0.637130,0.930113,0.060990,0.019635,0.058461,0.000002,0.000002,0.000000,0.000002,0.000012,0.002428,0.002466,0.000902
9.900000,-38.067302,-7.643290,-29.254732,0.756458,0.118894,-0.464192,0.998896,0.006091,0.012220,0.044949,0.203718,0.779885,0.005179,-0.001393,0.005669,-0.001061,0.005795,0.027849,-35.899000,-8.367421,-26.603235,0.913105,0.082419,-0.089578,0.999592,0.007633,0.015266,0.022899,0.201743,0.778335,0.005059,-0.002962,0.001997,0.020304,-0.010038,0.015120,0.000038,0.000058,0.003601,0.982294,0.644592,0.945819,0.060952,0.019636,0.058956,0.000002,0.000002,0.000000,0.000002,0.000012,0.002426,0.002465,0.000901
9.950000,-38.028729,-7.637862,-29.283958,0.738691,0.110801,-0.461552,0.998938,0.005869,0.011686,0.044177,0.204868,0.780126,0.005185,-0.001374,0.005681,-0.001020,0.005730,0.027833,-35.854067,-8.363383,-26.607632,0.884252,0.079132,-0.086325,0.999618,0.007391,0.014782,0.022173,0.202929,0.778186,0.005059,-0.002962,0.001997,0.020288,-0.010030,0.015107,0.000038,0.000058,0.003614,1.001299,0.652191,0.963669,0.061271,0.019773,0.059522,0.000002,0.000002,0.000000,0.000002,0.000012,0.002426,0.002465,0.000901
10.000000,-36.753160,-7.518470,-28.391167,0.934900,0.167244,-0.212944,0.998907,0.006275,0.011125,0.044974,0.205815,0.779634,0.005100,-0.001880,0.004943,0.000438,0.003564,0.004507,-35.810572,-8.359507,-26.611868,0.855585,0.075909,-0.083119,0.999642,0.007151,0.014301,0.021452,0.204103,0.778015,0.005058,-0.002965,0.001998,0.020290,-0.010048,0.015091,0.000038,0.000056,0.003599,0.437581,0.390489,0.423752,0.037768,0.014916,0.030077,0.000002,0.000002,0.000000,0.000001,0.000010,0.002423,0.002462,0.000622
10.050000,-36.686407,-7.504928,-28.441295,0.936692,0.172282,-0.217910,0.998950,0.006263,0.009967,0.044274,0.207085,0.779972,0.005062,-0.001728,0.004890,0.001544,0.003051,0.003834,-35.768505,-8.355791,-26.615945,0.827123,0.072753,-0.079962,0.999666,0.006912,0.013824,0.020736,0.205263,0.777821,0.005058,-0.002966,0.001996,0.020255,-0.010061,0.015070,0.000037,0.000055,0.003609,0.445205,0.394864,0.429911,0.037649,0.014929,0.030364,0.000002,0.000002,0.000000,0.000001,0.000010,0.002422,0.002462,0.000622
10.100000,-36.615975,-7.492503,-28.502987,0.948139,0.170746,-0.225117,0.999009,0.006078,0.008680,0.043223,0.208520,0.780559,0.005066,-0.001531,0.004912,0.002639,0.002275,0.003155,-35.727856,-8.352231,-26.619865,0.798884,0.069665,-0.076857,0.999688,0.006675,0.013350,0.020026,0.206410,0.777606,0.005062,-0.002962,0.001994,0.020266,-0.010088,0.015071,0.000037,0.000054,0.003621,0.453203,0.399325,0.437036,0.037892,0.015061,0.030691,0.000002,0.000002,0.000000,0.000001,0.000010,0.002421,0.002462,0.000621
10.150000,-36.629525,-7.504958,-28.390783,0.851142,0.129943,-0.197906,0.999070,0.005039,0.009877,0.041664,0.210279,0.778887,0.005225,-0.001980,0.005137,-0.001380,0.003875,0.005098,-35.688613,-8.348823,-26.623631,0.770885,0.066644,-0.073804,0.999710,0.006441,0.012881,0.019322,0.207542,0.777370,0.005064,-0.002965,0.001996,0.020229,-0.010117,0.015070,0.000037,0.000053,0.003634,0.461192,0.403817,0.443389,0.037778,0.015052,0.030979,0.000002,0.000002,0.000000,0.000001,0.000010,0.002419,0.002461,0.000621
10.200000,-36.588872,-7.489780,-28.392345,0.824370,0.139612,-0.191171,0.999070,0.005209,0.009439,0.041755,0.210665,0.778558,0.005095,-0.002025,0.004933,-0.000535,0.004268,0.004864,-35.650763,-8.345565,-26.627246,0.743144,0.063692,-0.070804,0.999730,0.006208,0.012416,0.018624,0.208659,0.777114,0.005063,-0.002965,0.001993,0.020251,-0.010092,0.015080,0.000037,0.000053,0.003647,0.469562,0.408405,0.450771,0.038020,0.015181,0.031309,0.000002,0.000002,0.000000,0.000001,0.000010,0.002418,0.002461,0.000621
10.250000,-36.582121,-7.482696,-28.317780,0.749701,0.137759,-0.167745,0.999072,0.005267,0.010032,0.041549,0.211579,0.777242,0.005008,-0.002337,0.004783,-0.001760,0.005768,0.005487,-35.614294,-8.342453,-26.630713,0.715679,0.060810,-0.067859,0.999750,0.005978,0.011956,0.017934,0.209761,0.776840,0.005065,-0.002966,0.001994,0.020231,-0.010073,0.015063,0.000036,0.000052,0.003660,0.477967,0.413018,0.457279,0.037930,0.015194,0.031594,0.000002,0.000002,0.000000,0.000001,0.000010,0.002416,0.002460,0.000621
10.300000,-36.529917,-7.459658,-28.356869,0.741887,0.158823,-0.169309,0.999069,0.005600,0.009003,0.041813,0.211377,0.777030,0.004845,-0.002245,0.004550,0.000363,0.005666,0.004765,-35.579190,-8.339483,-26.634033,0.688508,0.057998,-0.064970,0.999768,0.005750,0.011501,0.017251,0.210847,0.776548,0.005063,-0.002968,0.001991,0.020242,-0.010083,0.015037,0.000036,0.000051,0.003674,0.486744,0.417739,0.464895,0.038182,0.015342,0.031925,0.000002,0.000002,0.000000,0.000001,0.000010,0.002415,0.002460,0.000621
10.350000,-36.495941,-7.457259,-28.362184,0.716251,0.145053,-0.166317,0.999116,0.005213,0.008517,0.040844,0.212724,0.776604,0.004901,-0.002251,0.004630,-0.000206,0.005581,0.004953,-35.545438,-8.336652,-26.637211,0.661648,0.055257,-0.062137,0.999786,0.005526,0.011051,0.016577,0.211917,0.776238,0.005066,-0.002969,0.001994,0.020216,-0.010113,0.015038,0.000036,0.000051,0.003689,0.495726,0.422530,0.472651,0.038437,0.015487,0.032258,0.000002,0.000002,0.000000,0.000001,0.000010,0.002414,0.002460,0.000620
10.400000,-36.450591,-7.461049,-28.410273,0.715098,0.125717,-0.174657,0.999186,0.004522,0.007570,0.039355,0.214837,0.776881,0.005041,-0.002107,0.004833,-0.000599,0.004619,0.005123,-35.513020,-8.333956,-26.640248,0.635115,0.052587,-0.059362,0.999803,0.005303,0.010607,0.015910,0.212969,0.775913,0.005068,-0.002967,0.001995,0.020217,-0.010100,0.015048,0.000035,0.000050,0.003703,0.504789,0.427337,0.479398,0.038397,0.015483,0.032538,0.000002,0.000002,0.000000,0.000001,0.000010,0.002412,0.002459,0.000620
10.450000,-36.425937,-7.451714,-28.380608,0.676065,0.124097,-0.165398,0.999205,0.004497,0.007602,0.038866,0.215664,0.776446,0.004985,-0.002235,0.004751,-0.000923,0.005360,0.005145,-35.481920,-8.331392,-26.643148,0.608927,0.049988,-0.056646,0.999819,0.005084,0.010169,0.015253,0.214004,0.775573,0.005072,-0.002966,0.001994,0.020235,-0.010082,0.015009,0.000035,0.000049,0.003717,0.514190,0.432265,0.487406,0.038665,0.015615,0.032871,0.000002,0.000002,0.000000,0.000001,0.000010,0.002411,0.002459,0.000620
10.500000,-36.408794,-7.460208,-28.344734,0.632211,0.098036,-0.152993,0.999254,0.003847,0.007765,0.037623,0.217466,0.775997,0.005094,-0.002366,0.004892,-0.003015,0.005759,0.005678,-35.452121,-8.328956,-26.645914,0.583100,0.047460,-0.053990,0.999834,0.004868,0.009736,0.014604,0.215021,0.775219,0.005069,-0.002965,0.001998,0.020262,-0.010086,0.015020,0.000035,0.000048,0.003732,0.523703,0.437202,0.494320,0.038660,0.015623,0.033146,0.000002,0.000002,0.000000,0.000001,0.000010,0.002409,0.002458,0.000620
10.550000,-36.398864,-7.458453,-28.270455,0.575720,0.090778,-0.134166,0.999271,0.003690,0.008247,0.037083,0.218189,0.774828,0.005077,-0.002618,0.004858,-0.004634,0.007077,0.005858,-35.423604,-8.326645,-26.648548,0.557651,0.045003,-0.051393,0.999848,0.004655,0.009310,0.013966,0.216019,0.774851,0.005071,-0.002964,0.001998,0.020240,-0.010068,0.014981,0.000035,0.000048,0.003746,0.533540,0.442271,0.502574,0.038942,0.015751,0.033480,0.000002,0.000002,0.000000,0.000001,0.000010,0.002408,0.002458,0.000620
10.600000,-36.325106,-7.429691,-28.454449,0.632633,0.117194,-0.170340,0.999293,0.004060,0.005962,0.036900,0.219116,0.776996,0.004953,-0.002100,0.004713,0.000523,0.004690,0.005142,-35.396349,-8.324454,-26.651054,0.532596,0.042618,-0.048857,0.999862,0.004446,0.008891,0.013337,0.216998,0.774472,0.005072,-0.002962,0.001996,0.020238,-0.010072,0.014995,0.000035,0.000047,0.003760,0.543532,0.447350,0.509607,0.038985,0.015759,0.033748,0.000002,0.000002,0.000000,0.000001,0.000010,0.002405,0.002457,0.000620
10.650000,-36.298901,-7.414902,-28.422875,0.595971,0.123914,-0.155765,0.999303,0.004230,0.005891,0.036622,0.219611,0.776337,0.004860,-0.002221,0.004581,0.000727,0.005566,0.004840,-35.370337,-8.322382,-26.653435,0.507951,0.040304,-0.046383,0.999874,0.004240,0.008479,0.012719,0.217958,0.774082,0.005069,-0.002961,0.001998,0.020248,-0.010089,0.014996,0.000034,0.000047,0.003775,0.553817,0.452564,0.518106,0.039276,0.015906,0.034082,0.000002,0.000002,0.000000,0.000001,0.000010,0.002404,0.002457,0.000620
10.700000,-36.276477,-7.418520,-28.411492,0.567556,0.107907,-0.147617,0.999343,0.003827,0.005635,0.035604,0.221136,0.775698,0.004929,-0.002272,0.004672,-0.000467,0.005666,0.005096,-35.345547,-8.320423,-26.655693,0.483731,0.038062,-0.043971,0.999886,0.004037,0.008074,0.012111,0.218898,0.773681,0.005068,-0.002963,0.002000,0.020254,-0.010128,0.014999,0.000034,0.000046,0.003790,0.564326,0.457854,0.526760,0.039570,0.016045,0.034418,0.000002,0.000002,0.000000,0.000001,0.000010,0.002403,0.002456,0.000620
10.750000,-36.250085,-7.419433,-28.423531,0.547911,0.094610,-0.143401,0.999378,0.003480,0.005065,0.034725,0.222434,0.775080,0.004979,-0.002256,0.004741,-0.000993,0.005451,0.005293,-35.321957,-8.318574,-26.657833,0.459953,0.035890,-0.041622,0.999897,0.003838,0.007676,0.011515,0.219817,0.773272,0.005067,-0.002963,0.002000,0.020234,-0.010116,0.014995,0.000034,0.000045,0.003804,0.575008,0.463149,0.534107,0.039651,0.016068,0.034684,0.000002,0.000002,0.000000,0.000001,0.000010,0.002400,0.002456,0.000620
10.800000,-36.225494,-7.420431,-28.428817,0.527806,0.082859,-0.140245,0.999411,0.003131,0.004845,0.033820,0.223876,0.775327,0.005021,-0.002259,0.004797,-0.001544,0.005364,0.005448,-35.299544,-8.316833,-26.659856,0.436631,0.033789,-0.039336,0.999907,0.003643,0.007287,0.010930,0.220716,0.772855,0.005068,-0.002961,0.002000,0.020261,-0.010094,0.014957,0.000034,0.000045,0.003819,0.585975,0.468593,0.543030,0.039960,0.016206,0.035021,0.000002,0.000002,0.000000,0.000001,0.000010,0.002399,0.002455,0.000619
10.850000,-36.216765,-7.410411,-28.287694,0.454750,0.090927,-0.102054,0.999418,0.003125,0.005679,0.033484,0.223974,0.773313,0.004928,-0.002653,0.004645,-0.003236,0.007877,0.004741,-35.278286,-8.315194,-26.661767,0.413780,0.031758,-0.037113,0.999917,0.003452,0.006905,0.010357,0.221593,0.772430,0.005070,-0.002960,0.001998,0.020252,-0.010068,0.014946,0.000034,0.000044,0.003833,0.597140,0.474045,0.550550,0.040080,0.016253,0.035283,0.000002,0.000002,0.000000,0.000001,0.000010,0.002397,0.002454,0.000619
10.900000,-36.198178,-7.409423,-28.269433,0.427084,0.082382,-0.093856,0.999445,0.002760,0.005569,0.032738,0.224864,0.772990,0.004946,-0.002712,0.004667,-0.003918,0.008178,0.004733,-35.258158,-8.313656,-26.663569,0.391415,0.029796,-0.034954,0.999925,0.003265,0.006531,0.009796,0.222448,0.772001,0.005070,-0.002963,0.001999,0.020227,-0.010061,0.014969,0.000034,0.000044,0.003848,0.608583,0.479649,0.559712,0.040406,0.016399,0.035618,0.000002,0.000002,0.000000,0.000001,0.000010,0.002396,0.002454,0.000619
10.950000,-36.168534,-7.396978,-28.342964,0.430595,0.086458,-0.107806,0.999463,0.002868,0.004429,0.032341,0.225926,0.772951,0.004904,-0.002543,0.004617,-0.002077,0.007271,0.004858,-35.239136,-8.312213,-26.665264,0.369550,0.027904,-0.032859,0.999933,0.003083,0.006166,0.009248,0.223282,0.771566,0.005070,-0.002959,0.001999,0.020281,-0.010064,0.014935,0.000033,0.000043,0.003862,0.620249,0.485271,0.567306,0.040576,0.016440,0.035867,0.000002,0.000002,0.000000,0.000001,0.000010,0.002393,0.002453,0.000619
11.000000,-36.150724,-7.398354,-28.332425,0.404989,0.075417,-0.102344,0.999494,0.002657,0.004161,0.031414,0.227318,0.772276,0.004940,-0.002579,0.004670,-0.002877,0.007405,0.004922,-35.221195,-8.310864,-26.666856,0.348198,0.026081,-0.030828,0.999941,0.002904,0.005809,0.008713,0.224093,0.771128,0.005071,-0.002958,0.002000,0.020257,-0.010061,0.014925,0.000033,0.000043,0.003877,0.632182,0.491043,0.576688,0.040920,0.016600,0.036200,0.000002,0.000002,0.000000,0.000001,0.000010,0.002392,0.002453,0.000619
11.050000,-36.128050,-7.385283,-28.301736,0.378932,0.082111,-0.092336,0.999499,0.002823,0.004055,0.031269,0.227901,0.771688,0.004868,-0.002667,0.004551,-0.002449,0.008123,0.004423,-35.204307,-8.309604,-26.668348,0.327375,0.024325,-0.028862,0.999948,0.002731,0.005461,0.008192,0.224882,0.770687,0.005067,-0.002957,0.001996,0.020206,-0.010023,0.014929,0.000033,0.000043,0.003891,0.644361,0.496903,0.586211,0.041270,0.016746,0.036533,0.000002,0.000002,0.000000,0.000001,0.000010,0.002391,0.002452,0.000619
11.100000,-36.103273,-7.366416,-28.306473,0.364796,0.099292,-0.088304,0.999493,0.003052,0.003561,0.031503,0.228077,0.771216,0.004766,-0.002673,0.004384,-0.000903,0.008397,0.004016,-35.188448,-8.308430,-26.669743,0.307092,0.022637,-0.026961,0.999954,0.002561,0.005122,0.007683,0.225647,0.770244,0.005068,-0.002959,0.001994,0.020187,-0.010061,0.014989,0.000033,0.000042,0.003905,0.656774,0.502786,0.593978,0.041489,0.016785,0.036771,0.000002,0.000002,0.000000,0.000001,0.000010,0.002388,0.002452,0.000619
11.150000,-36.081764,-7.355077,-28.266928,0.337651,0.103062,-0.075574,0.999497,0.003176,0.003511,0.031343,0.228605,0.770454,0.004715,-0.002773,0.004293,-0.000840,0.009152,0.003486,-35.173589,-8.307339,-26.671045,0.287363,0.021016,-0.025124,0.999960,0.002396,0.004793,0.007189,0.226389,0.769801,0.005065,-0.002958,0.001991,0.020149,-0.010041,0.014992,0.000033,0.000042,0.003919,0.669454,0.508819,0.603715,0.041855,0.016936,0.037101,0.000002,0.000002,0.000000,0.000001,0.000010,0.002387,0.002451,0.000618
11.200000,-36.051676,-7.322283,-28.333391,0.340097,0.135376,-0.082989,0.999457,0.003787,0.002434,0.032653,0.228111,0.770386,0.004533,-0.002647,0.003986,0.003086,0.008738,0.003201,-35.159702,-8.306328,-26.672257,0.268200,0.019461,-0.023353,0.999965,0.002236,0.004473,0.006709,0.227107,0.769359,0.005064,-0.002957,0.001991,0.020123,-0.010045,0.015020,0.000033,0.000041,0.003932,0.682366,0.514882,0.611562,0.042108,0.017005,0.037327,0.000002,0.000002,0.000000,0.000001,0.000010,0.002385,0.002450,0.000618
11.250000,-36.032074,-7.307147,-28.379554,0.335266,0.145351,-0.087717,0.999455,0.003713,0.001733,0.032748,0.228225,0.770494,0.004480,-0.002561,0.003898,0.004609,0.008284,0.003330,-35.146759,-8.305392,-26.673381,0.249616,0.017971,-0.021646,0.999970,0.002081,0.004163,0.006244,0.227801,0.768918,0.005062,-0.002959,0.001990,0.020129,-0.010054,0.015005,0.000033,0.000041,0.003947,0.695554,0.521096,0.621527,0.042486,0.017158,0.037656,0.000002,0.000002,0.000000,0.000001,0.000010,0.002384,0.002450,0.000618
11.300000,-36.006383,-7.303862,-28.192053,0.278391,0.140079,-0.044476,0.999487,0.003519,0.002824,0.031694,0.228784,0.768675,0.004494,-0.002955,0.003901,0.001517,0.010883,0.001647,-35.134731,-8.304530,-26.674422,0.231623,0.016545,-0.020004,0.999974,0.001931,0.003862,0.005793,0.228471,0.768481,0.005061,-0.002962,0.001990,0.020126,-0.010053,0.014971,0.000032,0.000040,0.003960,0.708967,0.527344,0.629515,0.042770,0.017207,0.037877,0.000002,0.000002,0.000000,0.000001,0.000010,0.002381,0.002449,0.000617
11.350000,-35.986123,-7.284492,-28.216419,0.270303,0.153533,-0.045555,0.999477,0.003592,0.002285,0.032058,0.228893,0.768655,0.004412,-0.002915,0.003750,0.003272,0.010765,0.001495,-35.123587,-8.303737,-26.675383,0.214231,0.015184,-0.018428,0.999978,0.001786,0.003572,0.005358,0.229116,0.768047,0.005062,-0.002964,0.001990,0.020087,-0.010056,0.014967,0.000032,0.000040,0.003974,0.722670,0.533740,0.639706,0.043164,0.017358,0.038203,0.000002,0.000002,0.000000,0.000001,0.000010,0.002380,0.002449,0.000617
11.400000,-35.968171,-7.279213,-28.142728,0.239461,0.145731,-0.030118,0.999504,0.003443,0.002523,0.031203,0.229584,0.767675,0.004426,-0.003063,0.003771,0.001953,0.011743,0.000800,-35.113297,-8.303010,-26.676266,0.197453,0.013885,-0.016916,0.999981,0.001646,0.003292,0.004938,0.229737,0.767618,0.005061,-0.002963,0.001992,0.020134,-0.010089,0.014978,0.000032,0.000040,0.003988,0.736637,0.540230,0.650028,0.043567,0.017508,0.038527,0.000002,0.000002,0.000000,0.000001,0.000010,0.002379,0.002448,0.000617
11.450000,-35.959687,-7.283548,-28.088073,0.212201,0.130554,-0.016232,0.999554,0.002999,0.002720,0.029583,0.230677,0.766895,0.004504,-0.003166,0.003922,-0.000240,0.012313,0.000562,-35.103831,-8.302347,-26.677076,0.181299,0.012649,-0.015470,0.999984,0.001511,0.003022,0.004534,0.230332,0.767195,0.005059,-0.002960,0.001993,0.020121,-0.010099,0.014953,0.000032,0.000039,0.004001,0.750792,0.546760,0.658065,0.043894,0.017563,0.038728,0.000002,0.000002,0.000000,0.000001,0.000010,0.002377,0.002447,0.000616
11.500000,-35.933678,-7.269795,-28.011293,0.187345,0.134646,0.003365,0.999555,0.003100,0.002985,0.029527,0.230817,0.766207,0.004461,-0.003311,0.003830,-0.000451,0.013378,-0.000510,-35.095157,-8.301744,-26.677814,0.165778,0.011474,-0.014088,0.999987,0.001382,0.002763,0.004145,0.230902,0.766780,0.005059,-0.002960,0.001994,0.020146,-0.010076,0.014902,0.000032,0.000039,0.004014,0.765276,0.553439,0.668526,0.044313,0.017702,0.039045,0.000002,0.000002,0.000000,0.000001,0.000010,0.002376,0.002447,0.000616
11.550000,-35.931517,-7.264367,-28.051690,0.180527,0.133902,-0.000557,0.999566,0.002901,0.002500,0.029221,0.231217,0.766162,0.004466,-0.003238,0.003840,-0.000017,0.012867,-0.000010,-35.087243,-8.301199,-26.678485,0.150902,0.010359,-0.012771,0.999989,0.001258,0.002515,0.003773,0.231447,0.766372,0.005062,-0.002958,0.001993,0.020124,-0.010090,0.014901,0.000032,0.000038,0.004026,0.779894,0.560163,0.676437,0.044675,0.017762,0.039223,0.000002,0.000002,0.000000,0.000001,0.000010,0.002373,0.002446,0.000615
11.600000,-35.932976,-7.265711,-28.067348,0.166738,0.124060,-0.001196,0.999600,0.002736,0.002353,0.028055,0.232376,0.766156,0.004517,-0.003208,0.003957,-0.000852,0.012586,0.000430,-35.080056,-8.300707,-26.679092,0.136680,0.009304,-0.011518,0.999991,0.001139,0.002278,0.003417,0.231966,0.765975,0.005061,-0.002958,0.001993,0.020183,-0.010092,0.014895,0.000032,0.000038,0.004039,0.794892,0.567036,0.687000,0.045112,0.017909,0.039530,0.000002,0.000002,0.000000,0.000001,0.000010,0.002372,0.002446,0.000614
11.650000,-35.873168,-7.239327,-27.889721,0.133886,0.142637,0.041295,0.999574,0.003172,0.003108,0.028858,0.231922,0.764948,0.004415,-0.003512,0.003714,-0.000838,0.014853,-0.002364,-35.073563,-8.300267,-26.679638,0.123120,0.008308,-0.010330,0.999993,0.001026,0.002052,0.003078,0.232459,0.765587,0.005064,-0.002951,0.001994,0.020188,-0.010106,0.014889,0.000031,0.000038,0.004050,0.809966,0.573962,0.694783,0.045509,0.017995,0.039685,0.000002,0.000002,0.000000,0.000001,0.000010,0.002370,0.002445,0.000613
11.700000,-35.870999,-7.226258,-27.942705,0.131949,0.150778,0.030007,0.999551,0.003205,0.002534,0.029676,0.231867,0.765048,0.004360,-0.003426,0.003582,0.000927,0.014304,-0.001883,-35.067732,-8.299876,-26.680126,0.110231,0.007371,-0.009207,0.999994,0.000918,0.001837,0.002755,0.232927,0.765211,0.005065,-0.002949,0.001992,0.020197,-0.010045,0.014881,0.000031,0.000038,0.004062,0.825479,0.581034,0.705427,0.045965,0.018125,0.039982,0.000002,0.000002,0.000000,0.000001,0.000010,0.002369,0.002444,0.000613
11.750000,-35.854985,-7.215660,-27.909121,0.116421,0.151446,0.036614,0.999560,0.003050,0.002437,0.029390,0.232034,0.764422,0.004347,-0.003478,0.003550,0.000850,0.014685,-0.002385,-35.062529,-8.299529,-26.680560,0.098022,0.006491,-0.008148,0.999995,0.000817,0.001633,0.002450,0.233368,0.764847,0.005066,-0.002944,0.001993,0.020182,-0.010044,0.014881,0.000031,0.000038,0.004075,0.841266,0.588207,0.716165,0.046429,0.018272,0.040276,0.000002,0.000002,0.000000,0.000001,0.000010,0.002368,0.002444,0.000612
11.800000,-35.891973,-7.233280,-27.970666,0.102711,0.119912,0.019679,0.999654,0.002173,0.002085,0.026117,0.233537,0.764244,0.004502,-0.003369,0.003947,-0.001843,0.013774,-0.000741,-35.057919,-8.299226,-26.680942,0.086501,0.005667,-0.007152,0.999996,0.000721,0.001441,0.002162,0.233783,0.764497,0.005069,-0.002945,0.001993,0.020165,-0.010070,0.014888,0.000031,0.000037,0.004084,0.857014,0.595435,0.723739,0.046866,0.018349,0.040398,0.000002,0.000002,0.000000,0.000001,0.000010,0.002365,0.002443,0.000610
